id,_id,sensor_ver,msg_ver,sensorID,macAddr,battery,temp,hPa,acc_x,acc_y,acc_z,vector,rssi,time,packetnum,krTime
1,2022-08-01 0:00,N,4,14,60:A4:23:C9:A0:2F,3.1,32.6,1016,19,24,18,41,71,2022-08-01 0:00,79,2022-08-01 9:00
2,2022-08-01 0:01,N,4,11,60:A4:23:C9:A0:9B,3,33.6,1010,7,7,7,14,81,2022-08-01 0:01,80,2022-08-01 9:01
3,2022-08-01 0:02,N,4,15,60:A4:23:C9:A0:3B,3,28.6,1025,17,22,16,38,72,2022-08-01 0:02,79,2022-08-01 9:02
4,2022-08-01 0:02,V,3,001A,60:A4:23:7C:A5:F3,1.1,25.7,1014,4,4,6,10,93,2022-08-01 0:02,73,2022-08-01 9:02
5,2022-08-01 0:02,N,4,12,60:A4:23:C9:A0:4D,3,28.3,1022,31,48,36,77,69,2022-08-01 0:02,80,2022-08-01 9:02
6,2022-08-01 0:02,N,4,16,60:A4:23:D4:5D:A3,3.1,32.4,1006,21,28,24,49,79,2022-08-01 0:02,79,2022-08-01 9:03
7,2022-08-01 0:04,N,4,17,60:A4:23:D4:5D:C7,3.1,30.2,1009,28,42,35,71,73,2022-08-01 0:04,79,2022-08-01 9:04
8,2022-08-01 0:05,V,3,001C,60:A4:23:7F:49:30,1.3,27.6,1014,4,5,5,10,86,2022-08-01 0:05,44,2022-08-01 9:05
9,2022-08-01 0:05,N,4,18,60:A4:23:C9:A0:E3,3.1,33.4,1006,45,71,47,110,71,2022-08-01 0:05,79,2022-08-01 9:05
10,2022-08-01 0:06,N,4,10,60:A4:23:C9:A0:4C,3,30.2,1006,32,41,40,75,78,2022-08-01 0:06,81,2022-08-01 9:06
11,2022-08-01 0:07,N,4,19,60:A4:23:D4:5D:84,3,33.6,1029,65,93,63,150,71,2022-08-01 0:07,79,2022-08-01 9:07
12,2022-08-01 0:08,N,4,13,60:A4:23:C9:A0:3E,3,31.7,1023,33,34,27,63,75,2022-08-01 0:08,80,2022-08-01 9:08
13,2022-08-01 0:10,N,4,14,60:A4:23:C9:A0:2F,3.1,33.2,1016,13,16,18,32,67,2022-08-01 0:10,80,2022-08-01 9:10
14,2022-08-01 0:11,N,4,11,60:A4:23:C9:A0:9B,3,33.6,1010,21,28,23,48,89,2022-08-01 0:11,81,2022-08-01 9:11
15,2022-08-01 0:12,N,4,15,60:A4:23:C9:A0:3B,3,29,1025,31,39,30,68,82,2022-08-01 0:12,80,2022-08-01 9:12
16,2022-08-01 0:12,V,3,001A,60:A4:23:7C:A5:F3,1.1,25.9,1014,4,4,6,10,95,2022-08-01 0:12,74,2022-08-01 9:12
17,2022-08-01 0:12,N,4,12,60:A4:23:C9:A0:4D,3,27.7,1022,26,33,26,58,71,2022-08-01 0:12,81,2022-08-01 9:12
18,2022-08-01 0:12,N,4,16,60:A4:23:D4:5D:A3,3.1,32.4,1006,17,24,18,40,75,2022-08-01 0:12,80,2022-08-01 9:13
19,2022-08-01 0:14,N,4,17,60:A4:23:D4:5D:C7,3.1,31.3,1009,6,6,7,14,73,2022-08-01 0:14,80,2022-08-01 9:14
20,2022-08-01 0:15,N,4,18,60:A4:23:C9:A0:E3,3.1,32.9,1006,58,84,61,137,82,2022-08-01 0:15,80,2022-08-01 9:15
21,2022-08-01 0:16,N,4,10,60:A4:23:C9:A0:4C,3,30.1,1006,32,40,30,69,82,2022-08-01 0:16,82,2022-08-01 9:16
22,2022-08-01 0:17,N,4,19,60:A4:23:D4:5D:84,3,33.3,1029,58,85,65,140,71,2022-08-01 0:17,80,2022-08-01 9:17
23,2022-08-01 0:18,N,4,13,60:A4:23:C9:A0:3E,3,32,1023,24,22,16,42,73,2022-08-01 0:18,81,2022-08-01 9:18
24,2022-08-01 0:20,N,4,14,60:A4:23:C9:A0:2F,3.1,32.7,1016,63,82,72,146,83,2022-08-01 0:20,81,2022-08-01 9:20
25,2022-08-01 0:21,N,4,11,60:A4:23:C9:A0:9B,3,32.7,1010,50,50,40,95,72,2022-08-01 0:21,82,2022-08-01 9:21
26,2022-08-01 0:22,N,4,15,60:A4:23:C9:A0:3B,3,29.9,1025,34,44,32,75,79,2022-08-01 0:22,81,2022-08-01 9:22
27,2022-08-01 0:22,V,3,001A,60:A4:23:7C:A5:F3,1.1,26.2,1014,4,4,6,10,93,2022-08-01 0:22,75,2022-08-01 9:22
28,2022-08-01 0:22,N,4,12,60:A4:23:C9:A0:4D,3,27.2,1022,33,44,32,73,56,2022-08-01 0:22,82,2022-08-01 9:22
29,2022-08-01 0:22,N,4,16,60:A4:23:D4:5D:A3,3.1,32.2,1006,18,24,19,42,68,2022-08-01 0:22,81,2022-08-01 9:23
30,2022-08-01 0:24,N,4,17,60:A4:23:D4:5D:C7,3.1,31.5,1009,14,15,13,29,73,2022-08-01 0:24,81,2022-08-01 9:24
31,2022-08-01 0:25,V,3,001C,60:A4:23:7F:49:30,1.3,28,1014,4,5,6,11,87,2022-08-01 0:25,46,2022-08-01 9:25
32,2022-08-01 0:25,N,4,18,60:A4:23:C9:A0:E3,3.1,32.5,1006,10,16,12,26,72,2022-08-01 0:25,81,2022-08-01 9:25
33,2022-08-01 0:26,N,4,10,60:A4:23:C9:A0:4C,3,30,1006,28,33,22,56,86,2022-08-01 0:26,83,2022-08-01 9:26
34,2022-08-01 0:27,N,4,19,60:A4:23:D4:5D:84,3,33.9,1029,14,23,17,37,90,2022-08-01 0:27,81,2022-08-01 9:27
35,2022-08-01 0:28,N,4,13,60:A4:23:C9:A0:3E,3,31.7,1023,25,29,22,51,66,2022-08-01 0:28,82,2022-08-01 9:28
36,2022-08-01 0:30,N,4,14,60:A4:23:C9:A0:2F,3.1,31.7,1016,28,26,27,55,74,2022-08-01 0:30,82,2022-08-01 9:30
37,2022-08-01 0:31,N,4,11,60:A4:23:C9:A0:9B,3,32.1,1010,49,44,36,87,84,2022-08-01 0:31,83,2022-08-01 9:31
38,2022-08-01 0:32,N,4,15,60:A4:23:C9:A0:3B,3,30.1,1025,99,142,107,234,68,2022-08-01 0:32,82,2022-08-01 9:32
39,2022-08-01 0:32,N,4,12,60:A4:23:C9:A0:4D,3,27.7,1022,38,54,43,91,76,2022-08-01 0:32,83,2022-08-01 9:32
40,2022-08-01 0:32,N,4,16,60:A4:23:D4:5D:A3,3.1,31.7,1006,35,44,41,80,64,2022-08-01 0:32,82,2022-08-01 9:33
41,2022-08-01 0:34,V,3,001E,60:A4:23:7F:3D:60,1.3,27.6,1014,4,4,5,10,91,2022-08-01 0:34,77,2022-08-01 9:34
42,2022-08-01 0:34,N,4,17,60:A4:23:D4:5D:C7,3.1,30.6,1009,17,20,15,36,76,2022-08-01 0:34,82,2022-08-01 9:34
43,2022-08-01 0:35,V,3,001C,60:A4:23:7F:49:30,1.3,28.2,1014,4,5,5,10,90,2022-08-01 0:35,47,2022-08-01 9:35
44,2022-08-01 0:35,N,4,18,60:A4:23:C9:A0:E3,3.1,31.2,1006,19,31,24,50,76,2022-08-01 0:35,82,2022-08-01 9:35
45,2022-08-01 0:36,N,4,10,60:A4:23:C9:A0:4C,3,29.9,1006,30,41,27,66,79,2022-08-01 0:36,84,2022-08-01 9:36
46,2022-08-01 0:37,N,4,19,60:A4:23:D4:5D:84,3,34.2,1029,27,30,19,51,69,2022-08-01 0:37,82,2022-08-01 9:37
47,2022-08-01 0:38,N,4,13,60:A4:23:C9:A0:3E,3,31.5,1023,54,81,52,127,69,2022-08-01 0:38,83,2022-08-01 9:38
48,2022-08-01 0:40,N,4,14,60:A4:23:C9:A0:2F,3.1,32.5,1016,9,9,11,19,75,2022-08-01 0:40,83,2022-08-01 9:40
49,2022-08-01 0:41,N,4,11,60:A4:23:C9:A0:9B,3,32.5,1010,20,20,17,38,82,2022-08-01 0:41,84,2022-08-01 9:41
50,2022-08-01 0:42,N,4,15,60:A4:23:C9:A0:3B,3,30.1,1026,62,78,58,134,72,2022-08-01 0:42,83,2022-08-01 9:42
51,2022-08-01 0:42,N,4,12,60:A4:23:C9:A0:4D,3,28.3,1022,10,12,11,23,66,2022-08-01 0:42,84,2022-08-01 9:42
52,2022-08-01 0:42,N,4,16,60:A4:23:D4:5D:A3,3.1,31.8,1006,28,40,30,66,83,2022-08-01 0:42,83,2022-08-01 9:43
53,2022-08-01 0:44,N,4,17,60:A4:23:D4:5D:C7,3.1,30.5,1009,19,18,13,33,82,2022-08-01 0:44,83,2022-08-01 9:44
54,2022-08-01 0:45,V,3,001C,60:A4:23:7F:49:30,1.3,28.4,1014,4,4,6,10,90,2022-08-01 0:45,48,2022-08-01 9:45
55,2022-08-01 0:45,N,4,18,60:A4:23:C9:A0:E3,3.1,30.9,1006,15,24,18,39,77,2022-08-01 0:45,83,2022-08-01 9:45
56,2022-08-01 0:45,V,3,001D,60:A4:23:7F:3D:52,1.3,23.9,1014,4,5,5,10,95,2022-08-01 0:45,78,2022-08-01 9:45
57,2022-08-01 0:46,N,4,10,60:A4:23:C9:A0:4C,3,29.9,1006,32,52,37,82,76,2022-08-01 0:46,85,2022-08-01 9:46
58,2022-08-01 0:47,N,4,19,60:A4:23:D4:5D:84,3,33.8,1029,53,67,48,114,72,2022-08-01 0:47,83,2022-08-01 9:47
59,2022-08-01 0:48,N,4,13,60:A4:23:C9:A0:3E,3,32.5,1023,73,98,71,162,70,2022-08-01 0:48,84,2022-08-01 9:48
60,2022-08-01 0:50,N,4,14,60:A4:23:C9:A0:2F,3.1,32.9,1016,19,20,18,38,72,2022-08-01 0:50,84,2022-08-01 9:50
61,2022-08-01 0:51,N,4,11,60:A4:23:C9:A0:9B,3,32.5,1010,26,32,24,56,88,2022-08-01 0:51,85,2022-08-01 9:51
62,2022-08-01 0:52,N,4,15,60:A4:23:C9:A0:3B,3,30.6,1026,12,15,13,28,74,2022-08-01 0:52,84,2022-08-01 9:52
63,2022-08-01 0:52,V,3,001A,60:A4:23:7C:A5:F3,1.1,26.8,1014,4,4,6,10,93,2022-08-01 0:52,78,2022-08-01 9:52
64,2022-08-01 0:52,N,4,12,60:A4:23:C9:A0:4D,3,28.5,1022,9,10,10,20,78,2022-08-01 0:52,85,2022-08-01 9:52
65,2022-08-01 0:52,N,4,16,60:A4:23:D4:5D:A3,3.1,32.4,1006,28,38,27,64,75,2022-08-01 0:52,84,2022-08-01 9:53
66,2022-08-01 0:54,N,4,17,60:A4:23:D4:5D:C7,3.1,30,1009,21,19,16,38,77,2022-08-01 0:54,84,2022-08-01 9:54
67,2022-08-01 0:55,N,4,18,60:A4:23:C9:A0:E3,3.1,30.7,1006,16,24,16,38,75,2022-08-01 0:55,84,2022-08-01 9:55
68,2022-08-01 0:55,V,3,001D,60:A4:23:7F:3D:52,1.3,24.1,1014,4,4,6,10,93,2022-08-01 0:55,79,2022-08-01 9:55
69,2022-08-01 0:56,N,4,10,60:A4:23:C9:A0:4C,3,30,1006,27,45,35,73,69,2022-08-01 0:56,86,2022-08-01 9:56
70,2022-08-01 0:57,N,4,19,60:A4:23:D4:5D:84,3,33,1029,69,106,69,166,74,2022-08-01 0:57,84,2022-08-01 9:57
71,2022-08-01 0:58,N,4,13,60:A4:23:C9:A0:3E,3,32.5,1023,43,60,44,99,80,2022-08-01 0:58,85,2022-08-01 9:58
72,2022-08-01 1:00,N,4,14,60:A4:23:C9:A0:2F,3.1,32.9,1016,19,19,16,36,70,2022-08-01 1:00,85,2022-08-01 10:00
73,2022-08-01 1:01,N,4,11,60:A4:23:C9:A0:9B,3,33.4,1010,22,26,19,45,78,2022-08-01 1:01,86,2022-08-01 10:01
74,2022-08-01 1:02,N,4,15,60:A4:23:C9:A0:3B,3,29.5,1026,22,24,21,46,67,2022-08-01 1:02,85,2022-08-01 10:02
75,2022-08-01 1:02,V,3,001A,60:A4:23:7C:A5:F3,1.1,27,1014,4,4,6,10,93,2022-08-01 1:02,79,2022-08-01 10:02
76,2022-08-01 1:02,N,4,12,60:A4:23:C9:A0:4D,3,27.9,1022,17,20,18,36,74,2022-08-01 1:02,86,2022-08-01 10:02
77,2022-08-01 1:02,N,4,16,60:A4:23:D4:5D:A3,3.1,32.4,1006,23,30,23,51,75,2022-08-01 1:02,85,2022-08-01 10:03
78,2022-08-01 1:04,N,4,17,60:A4:23:D4:5D:C7,3.1,29.8,1009,37,45,39,82,79,2022-08-01 1:04,85,2022-08-01 10:04
79,2022-08-01 1:05,V,3,001C,60:A4:23:7F:49:30,1.3,28.7,1014,4,5,5,10,89,2022-08-01 1:05,50,2022-08-01 10:05
80,2022-08-01 1:05,N,4,18,60:A4:23:C9:A0:E3,3.1,30.9,1006,80,116,110,204,72,2022-08-01 1:05,85,2022-08-01 10:05
81,2022-08-01 1:06,N,4,10,60:A4:23:C9:A0:4C,3,29.5,1006,25,31,21,52,72,2022-08-01 1:06,87,2022-08-01 10:06
82,2022-08-01 1:07,N,4,19,60:A4:23:D4:5D:84,3,33.3,1029,94,127,97,213,77,2022-08-01 1:07,85,2022-08-01 10:07
83,2022-08-01 1:08,N,4,13,60:A4:23:C9:A0:3E,3,32.9,1023,58,83,70,143,86,2022-08-01 1:08,86,2022-08-01 10:08
84,2022-08-01 1:10,N,4,14,60:A4:23:C9:A0:2F,3.1,33.1,1016,27,33,24,56,67,2022-08-01 1:10,86,2022-08-01 10:10
85,2022-08-01 1:11,N,4,11,60:A4:23:C9:A0:9B,3,33.1,1010,25,34,29,59,66,2022-08-01 1:11,87,2022-08-01 10:11
86,2022-08-01 1:12,N,4,15,60:A4:23:C9:A0:3B,3,29.7,1026,45,66,47,106,77,2022-08-01 1:12,86,2022-08-01 10:12
87,2022-08-01 1:12,V,3,001A,60:A4:23:7C:A5:F3,1.1,27.1,1014,4,4,6,10,92,2022-08-01 1:12,80,2022-08-01 10:12
88,2022-08-01 1:12,N,4,12,60:A4:23:C9:A0:4D,3,27.4,1022,15,19,18,35,69,2022-08-01 1:12,87,2022-08-01 10:12
89,2022-08-01 1:12,N,4,16,60:A4:23:D4:5D:A3,3.1,32.2,1006,69,104,80,172,71,2022-08-01 1:12,86,2022-08-01 10:13
90,2022-08-01 1:14,N,4,17,60:A4:23:D4:5D:C7,3.1,29.9,1009,101,114,94,211,81,2022-08-01 1:14,86,2022-08-01 10:14
91,2022-08-01 1:15,V,3,001C,60:A4:23:7F:49:30,1.3,28.9,1014,4,5,5,10,88,2022-08-01 1:15,51,2022-08-01 10:15
92,2022-08-01 1:15,N,4,18,60:A4:23:C9:A0:E3,3.1,31.7,1006,199,204,186,396,80,2022-08-01 1:15,86,2022-08-01 10:15
93,2022-08-01 1:15,V,3,001D,60:A4:23:7F:3D:52,1.3,24.4,1014,5,4,6,10,94,2022-08-01 1:15,81,2022-08-01 10:15
94,2022-08-01 1:16,N,4,10,60:A4:23:C9:A0:4C,3,29.2,1006,49,71,48,114,75,2022-08-01 1:16,88,2022-08-01 10:16
95,2022-08-01 1:17,N,4,19,60:A4:23:D4:5D:84,3,33.5,1029,85,122,79,194,71,2022-08-01 1:17,86,2022-08-01 10:17
96,2022-08-01 1:18,N,4,13,60:A4:23:C9:A0:3E,3,33.2,1023,88,108,87,190,63,2022-08-01 1:18,87,2022-08-01 10:18
97,2022-08-01 1:20,N,4,14,60:A4:23:C9:A0:2F,3.1,32.8,1016,62,73,59,131,81,2022-08-01 1:20,87,2022-08-01 10:20
98,2022-08-01 1:21,N,4,11,60:A4:23:C9:A0:9B,3,32.7,1010,50,51,38,93,69,2022-08-01 1:21,88,2022-08-01 10:21
99,2022-08-01 1:22,N,4,15,60:A4:23:C9:A0:3B,3,30.7,1026,19,23,15,39,68,2022-08-01 1:22,87,2022-08-01 10:22
100,2022-08-01 1:22,V,3,001A,60:A4:23:7C:A5:F3,1.1,27.3,1014,4,4,6,10,92,2022-08-01 1:22,81,2022-08-01 10:22
101,2022-08-01 1:22,N,4,12,60:A4:23:C9:A0:4D,3,27.3,1022,17,24,19,41,74,2022-08-01 1:22,88,2022-08-01 10:22
102,2022-08-01 1:22,N,4,16,60:A4:23:D4:5D:A3,3.1,32.6,1006,61,87,61,141,78,2022-08-01 1:22,87,2022-08-01 10:23
103,2022-08-01 1:24,N,4,17,60:A4:23:D4:5D:C7,3.1,30.2,1009,23,35,23,56,72,2022-08-01 1:24,87,2022-08-01 10:24
104,2022-08-01 1:25,V,3,001C,60:A4:23:7F:49:30,1.3,29,1014,4,4,6,10,89,2022-08-01 1:25,52,2022-08-01 10:25
105,2022-08-01 1:25,N,4,18,60:A4:23:C9:A0:E3,3.1,32.7,1006,29,47,36,75,72,2022-08-01 1:25,87,2022-08-01 10:25
106,2022-08-01 1:25,V,3,001D,60:A4:23:7F:3D:52,1.3,24.6,1014,5,4,6,10,93,2022-08-01 1:25,82,2022-08-01 10:25
107,2022-08-01 1:26,N,4,10,60:A4:23:C9:A0:4C,3,29.7,1006,25,39,27,62,75,2022-08-01 1:26,89,2022-08-01 10:26
108,2022-08-01 1:27,N,4,19,60:A4:23:D4:5D:84,3,33.9,1029,92,119,93,204,77,2022-08-01 1:27,87,2022-08-01 10:27
109,2022-08-01 1:28,N,4,13,60:A4:23:C9:A0:3E,3,33.2,1023,42,61,40,98,91,2022-08-01 1:28,88,2022-08-01 10:28
110,2022-08-01 1:30,N,4,14,60:A4:23:C9:A0:2F,3.1,32.5,1016,51,55,42,99,66,2022-08-01 1:30,88,2022-08-01 10:30
111,2022-08-01 1:31,N,4,11,60:A4:23:C9:A0:9B,3,32.7,1010,37,46,30,77,69,2022-08-01 1:31,89,2022-08-01 10:31
112,2022-08-01 1:32,N,4,15,60:A4:23:C9:A0:3B,3,31.5,1026,20,23,17,40,72,2022-08-01 1:32,88,2022-08-01 10:32
113,2022-08-01 1:32,V,3,001A,60:A4:23:7C:A5:F3,1.1,27.5,1014,4,5,6,10,92,2022-08-01 1:32,82,2022-08-01 10:32
114,2022-08-01 1:32,N,4,12,60:A4:23:C9:A0:4D,3,27.3,1022,17,24,17,39,73,2022-08-01 1:32,89,2022-08-01 10:32
115,2022-08-01 1:32,N,4,16,60:A4:23:D4:5D:A3,3.1,32.2,1006,21,28,23,50,71,2022-08-01 1:32,88,2022-08-01 10:33
116,2022-08-01 1:34,N,4,17,60:A4:23:D4:5D:C7,3.1,30.7,1009,51,64,50,113,72,2022-08-01 1:34,88,2022-08-01 10:34
117,2022-08-01 1:35,V,3,001C,60:A4:23:7F:49:30,1.3,29.3,1014,4,4,5,10,86,2022-08-01 1:35,53,2022-08-01 10:35
118,2022-08-01 1:35,N,4,18,60:A4:23:C9:A0:E3,3.1,33.5,1006,46,70,51,112,68,2022-08-01 1:35,88,2022-08-01 10:35
119,2022-08-01 1:35,V,3,001D,60:A4:23:7F:3D:52,1.3,24.7,1014,5,4,6,10,93,2022-08-01 1:35,83,2022-08-01 10:35
120,2022-08-01 1:36,N,4,10,60:A4:23:C9:A0:4C,3,30.1,1006,24,35,29,59,86,2022-08-01 1:36,90,2022-08-01 10:36
121,2022-08-01 1:37,N,4,19,60:A4:23:D4:5D:84,3,34.1,1029,54,84,55,131,72,2022-08-01 1:37,88,2022-08-01 10:37
122,2022-08-01 1:38,N,4,13,60:A4:23:C9:A0:3E,3,32.8,1023,34,38,29,68,73,2022-08-01 1:38,89,2022-08-01 10:38
123,2022-08-01 1:40,N,4,14,60:A4:23:C9:A0:2F,3.1,32.6,1016,50,64,52,112,75,2022-08-01 1:40,89,2022-08-01 10:40
124,2022-08-01 1:41,N,4,11,60:A4:23:C9:A0:9B,3,32.9,1010,35,36,24,65,68,2022-08-01 1:41,90,2022-08-01 10:41
125,2022-08-01 1:42,N,4,15,60:A4:23:C9:A0:3B,3,31.8,1026,23,29,23,51,70,2022-08-01 1:42,89,2022-08-01 10:42
126,2022-08-01 1:42,V,3,001A,60:A4:23:7C:A5:F3,1.1,27.6,1014,4,4,6,10,95,2022-08-01 1:42,83,2022-08-01 10:42
127,2022-08-01 1:42,N,4,12,60:A4:23:C9:A0:4D,3,27.7,1022,66,92,69,153,70,2022-08-01 1:42,90,2022-08-01 10:42
128,2022-08-01 1:42,N,4,16,60:A4:23:D4:5D:A3,3.1,32,1006,22,27,22,48,72,2022-08-01 1:42,89,2022-08-01 10:43
129,2022-08-01 1:44,N,4,17,60:A4:23:D4:5D:C7,3.1,30.9,1009,45,63,48,106,82,2022-08-01 1:44,89,2022-08-01 10:44
130,2022-08-01 1:45,N,4,18,60:A4:23:C9:A0:E3,3.1,33.9,1006,50,72,54,118,77,2022-08-01 1:45,89,2022-08-01 10:45
131,2022-08-01 1:45,V,3,001D,60:A4:23:7F:3D:52,1.3,24.9,1014,5,4,6,11,90,2022-08-01 1:45,84,2022-08-01 10:45
132,2022-08-01 1:46,N,4,10,60:A4:23:C9:A0:4C,3,30.4,1006,26,35,23,57,94,2022-08-01 1:46,91,2022-08-01 10:46
133,2022-08-01 1:47,N,4,19,60:A4:23:D4:5D:84,3,34.2,1029,18,26,18,42,73,2022-08-01 1:47,89,2022-08-01 10:47
134,2022-08-01 1:48,N,4,13,60:A4:23:C9:A0:3E,3,32.8,1023,20,26,19,44,77,2022-08-01 1:48,90,2022-08-01 10:48
135,2022-08-01 1:50,N,4,14,60:A4:23:C9:A0:2F,3.1,33.2,1016,11,12,13,25,78,2022-08-01 1:50,90,2022-08-01 10:50
136,2022-08-01 1:51,N,4,11,60:A4:23:C9:A0:9B,3,33.3,1010,30,27,17,52,70,2022-08-01 1:51,91,2022-08-01 10:51
137,2022-08-01 1:52,N,4,15,60:A4:23:C9:A0:3B,3,31.7,1026,18,25,16,40,70,2022-08-01 1:52,90,2022-08-01 10:52
138,2022-08-01 1:52,V,3,001A,60:A4:23:7C:A5:F3,1.1,27.7,1014,4,4,6,10,93,2022-08-01 1:52,84,2022-08-01 10:52
139,2022-08-01 1:52,N,4,12,60:A4:23:C9:A0:4D,3,28.4,1022,78,90,83,169,64,2022-08-01 1:52,91,2022-08-01 10:52
140,2022-08-01 1:52,N,4,16,60:A4:23:D4:5D:A3,3.1,31.7,1006,24,31,24,54,76,2022-08-01 1:52,90,2022-08-01 10:53
141,2022-08-01 1:54,N,4,17,60:A4:23:D4:5D:C7,3.1,30.6,1009,47,42,36,84,88,2022-08-01 1:54,90,2022-08-01 10:54
142,2022-08-01 1:55,V,3,001C,60:A4:23:7F:49:30,1.3,29.4,1014,4,4,5,10,88,2022-08-01 1:55,55,2022-08-01 10:55
143,2022-08-01 1:55,N,4,18,60:A4:23:C9:A0:E3,3.1,34.2,1006,31,50,34,79,84,2022-08-01 1:55,90,2022-08-01 10:55
144,2022-08-01 1:55,V,3,001D,60:A4:23:7F:3D:52,1.3,25,1014,5,4,5,10,97,2022-08-01 1:55,85,2022-08-01 10:55
145,2022-08-01 1:56,N,4,10,60:A4:23:C9:A0:4C,3,30.8,1006,23,31,18,49,86,2022-08-01 1:56,92,2022-08-01 10:56
146,2022-08-01 1:57,N,4,19,60:A4:23:D4:5D:84,3,34.9,1029,15,21,15,34,82,2022-08-01 1:57,90,2022-08-01 10:57
147,2022-08-01 1:58,N,4,13,60:A4:23:C9:A0:3E,3,32.3,1023,21,26,18,44,82,2022-08-01 1:58,91,2022-08-01 10:58
148,2022-08-01 2:00,N,4,14,60:A4:23:C9:A0:2F,3.1,33,1016,19,22,15,38,71,2022-08-01 2:00,91,2022-08-01 11:00
149,2022-08-01 2:01,N,4,11,60:A4:23:C9:A0:9B,3,33.6,1010,27,21,15,43,76,2022-08-01 2:01,92,2022-08-01 11:01
150,2022-08-01 2:02,N,4,15,60:A4:23:C9:A0:3B,3,31.5,1026,25,35,22,56,70,2022-08-01 2:02,91,2022-08-01 11:02
151,2022-08-01 2:02,V,3,001A,60:A4:23:7C:A5:F3,1.1,27.8,1014,4,4,6,10,95,2022-08-01 2:02,85,2022-08-01 11:02
152,2022-08-01 2:02,N,4,12,60:A4:23:C9:A0:4D,3,29.1,1022,8,12,10,21,74,2022-08-01 2:02,92,2022-08-01 11:02
153,2022-08-01 2:02,N,4,16,60:A4:23:D4:5D:A3,3.1,31.6,1006,25,31,25,54,72,2022-08-01 2:02,91,2022-08-01 11:03
154,2022-08-01 2:04,N,4,17,60:A4:23:D4:5D:C7,3.1,31.5,1009,13,16,11,27,74,2022-08-01 2:04,91,2022-08-01 11:04
155,2022-08-01 2:05,V,3,001C,60:A4:23:7F:49:30,1.3,29.5,1014,4,4,5,10,87,2022-08-01 2:05,56,2022-08-01 11:05
156,2022-08-01 2:05,N,4,18,60:A4:23:C9:A0:E3,3.1,33.3,1006,14,28,15,40,69,2022-08-01 2:05,91,2022-08-01 11:05
157,2022-08-01 2:05,V,3,001D,60:A4:23:7F:3D:52,1.3,25.1,1014,4,4,5,10,93,2022-08-01 2:05,86,2022-08-01 11:05
158,2022-08-01 2:06,N,4,10,60:A4:23:C9:A0:4C,3,31,1006,24,28,18,47,75,2022-08-01 2:06,93,2022-08-01 11:06
159,2022-08-01 2:07,N,4,19,60:A4:23:D4:5D:84,3,34.8,1029,22,34,20,51,69,2022-08-01 2:07,91,2022-08-01 11:07
160,2022-08-01 2:08,N,4,13,60:A4:23:C9:A0:3E,3,32,1023,20,24,17,41,67,2022-08-01 2:08,92,2022-08-01 11:08
161,2022-08-01 2:10,N,4,14,60:A4:23:C9:A0:2F,3.1,32.4,1016,19,20,16,37,64,2022-08-01 2:10,92,2022-08-01 11:10
162,2022-08-01 2:11,N,4,11,60:A4:23:C9:A0:9B,3,33.8,1010,8,11,10,20,73,2022-08-01 2:11,93,2022-08-01 11:11
163,2022-08-01 2:12,N,4,15,60:A4:23:C9:A0:3B,3,30.8,1026,19,25,18,42,66,2022-08-01 2:12,92,2022-08-01 11:12
164,2022-08-01 2:12,V,3,001A,60:A4:23:7C:A5:F3,1.1,27.9,1014,4,4,6,10,90,2022-08-01 2:12,86,2022-08-01 11:12
165,2022-08-01 2:12,N,4,12,60:A4:23:C9:A0:4D,3,29.4,1022,22,37,27,59,75,2022-08-01 2:12,93,2022-08-01 11:12
166,2022-08-01 2:12,N,4,16,60:A4:23:D4:5D:A3,3.1,31.5,1006,12,12,12,24,80,2022-08-01 2:12,92,2022-08-01 11:13
167,2022-08-01 2:14,N,4,17,60:A4:23:D4:5D:C7,3.1,31.3,1009,21,22,17,41,74,2022-08-01 2:14,92,2022-08-01 11:14
168,2022-08-01 2:15,V,3,001C,60:A4:23:7F:49:30,1.3,29.7,1014,4,4,6,10,86,2022-08-01 2:15,57,2022-08-01 11:15
169,2022-08-01 2:15,N,4,18,60:A4:23:C9:A0:E3,3.1,32.3,1006,16,23,16,37,71,2022-08-01 2:15,92,2022-08-01 11:15
170,2022-08-01 2:15,V,3,001D,60:A4:23:7F:3D:52,1.4,25.2,1014,4,4,6,10,90,2022-08-01 2:15,87,2022-08-01 11:15
171,2022-08-01 2:16,N,4,10,60:A4:23:C9:A0:4C,3,30.8,1006,25,28,18,48,85,2022-08-01 2:16,94,2022-08-01 11:16
172,2022-08-01 2:17,N,4,19,60:A4:23:D4:5D:84,3,34.2,1029,83,111,81,183,66,2022-08-01 2:17,92,2022-08-01 11:17
173,2022-08-01 2:18,N,4,13,60:A4:23:C9:A0:3E,3,32.4,1023,10,10,10,20,81,2022-08-01 2:18,93,2022-08-01 11:18
174,2022-08-01 2:20,N,4,14,60:A4:23:C9:A0:2F,3.1,32.2,1016,17,17,15,34,73,2022-08-01 2:20,93,2022-08-01 11:20
175,2022-08-01 2:21,N,4,11,60:A4:23:C9:A0:9B,3,34.3,1010,20,16,20,37,81,2022-08-01 2:21,94,2022-08-01 11:21
176,2022-08-01 2:22,N,4,15,60:A4:23:C9:A0:3B,3,30.8,1026,19,22,19,40,74,2022-08-01 2:22,93,2022-08-01 11:22
177,2022-08-01 2:22,V,3,001A,60:A4:23:7C:A5:F3,1.1,28.6,1014,14,9,27,36,94,2022-08-01 2:22,87,2022-08-01 11:22
178,2022-08-01 2:22,N,4,12,60:A4:23:C9:A0:4D,3,29.1,1022,19,28,24,48,72,2022-08-01 2:22,94,2022-08-01 11:22
179,2022-08-01 2:22,N,4,16,60:A4:23:D4:5D:A3,3.1,32.2,1006,8,10,12,20,76,2022-08-01 2:22,93,2022-08-01 11:23
180,2022-08-01 2:24,N,4,17,60:A4:23:D4:5D:C7,3.1,31.6,1009,21,20,16,38,76,2022-08-01 2:24,93,2022-08-01 11:24
181,2022-08-01 2:25,V,3,001C,60:A4:23:7F:49:30,1.3,30.4,1014,7,6,12,18,85,2022-08-01 2:25,58,2022-08-01 11:25
182,2022-08-01 2:25,N,4,18,60:A4:23:C9:A0:E3,3.1,32.1,1006,22,33,20,52,71,2022-08-01 2:25,93,2022-08-01 11:25
183,2022-08-01 2:25,V,3,001D,60:A4:23:7F:3D:52,1.3,25.9,1014,5,5,7,12,93,2022-08-01 2:25,88,2022-08-01 11:25
184,2022-08-01 2:26,N,4,10,60:A4:23:C9:A0:4C,3,31.1,1006,27,29,20,51,86,2022-08-01 2:26,95,2022-08-01 11:26
185,2022-08-01 2:27,N,4,19,60:A4:23:D4:5D:84,3,34.1,1029,62,94,59,144,65,2022-08-01 2:27,93,2022-08-01 11:27
186,2022-08-01 2:30,N,4,14,60:A4:23:C9:A0:2F,3.1,32.7,1016,6,6,7,14,68,2022-08-01 2:30,94,2022-08-01 11:30
187,2022-08-01 2:31,N,4,11,60:A4:23:C9:A0:9B,3,34.4,1010,6,6,7,13,95,2022-08-01 2:31,95,2022-08-01 11:31
188,2022-08-01 2:32,V,3,001A,60:A4:23:7C:A5:F3,1.1,28.6,1014,22,14,38,52,94,2022-08-01 2:32,88,2022-08-01 11:32
189,2022-08-01 2:32,N,4,12,60:A4:23:C9:A0:4D,3,28.8,1022,17,23,18,40,66,2022-08-01 2:32,95,2022-08-01 11:32
190,2022-08-01 2:32,N,4,16,60:A4:23:D4:5D:A3,3.1,31.6,1006,17,22,20,40,71,2022-08-01 2:32,94,2022-08-01 11:33
191,2022-08-01 2:34,N,4,17,60:A4:23:D4:5D:C7,3.1,31.6,1009,27,29,22,52,61,2022-08-01 2:34,94,2022-08-01 11:34
192,2022-08-01 2:35,V,3,001C,60:A4:23:7F:49:30,1.3,30.3,1014,7,6,14,19,88,2022-08-01 2:35,59,2022-08-01 11:35
193,2022-08-01 2:35,N,4,18,60:A4:23:C9:A0:E3,3.1,32.8,1006,49,68,53,115,80,2022-08-01 2:35,94,2022-08-01 11:35
194,2022-08-01 2:35,V,3,001D,60:A4:23:7F:3D:52,1.3,25.8,1014,6,5,8,13,94,2022-08-01 2:35,89,2022-08-01 11:35
195,2022-08-01 2:36,N,4,10,60:A4:23:C9:A0:4C,3,31.1,1006,10,13,11,23,68,2022-08-01 2:36,96,2022-08-01 11:36
196,2022-08-01 2:37,N,4,19,60:A4:23:D4:5D:84,3,34.5,1029,65,89,71,152,77,2022-08-01 2:37,94,2022-08-01 11:37
197,2022-08-01 2:38,N,4,13,60:A4:23:C9:A0:3E,3,34.4,1023,11,13,11,24,84,2022-08-01 2:38,95,2022-08-01 11:38
198,2022-08-01 2:40,N,4,14,60:A4:23:C9:A0:2F,3.1,32.9,1016,8,9,10,19,65,2022-08-01 2:40,95,2022-08-01 11:40
199,2022-08-01 2:41,N,4,11,60:A4:23:C9:A0:9B,3,34.7,1010,13,15,12,27,74,2022-08-01 2:41,96,2022-08-01 11:41
200,2022-08-01 2:42,N,4,12,60:A4:23:C9:A0:4D,3,28.6,1022,24,32,24,54,69,2022-08-01 2:42,96,2022-08-01 11:42
201,2022-08-01 2:42,N,4,16,60:A4:23:D4:5D:A3,3.1,31.8,1006,19,21,18,39,71,2022-08-01 2:42,95,2022-08-01 11:43
202,2022-08-01 2:44,N,4,17,60:A4:23:D4:5D:C7,3.1,31.1,1009,45,58,48,103,75,2022-08-01 2:44,95,2022-08-01 11:44
203,2022-08-01 2:45,N,4,18,60:A4:23:C9:A0:E3,3.1,33.4,1006,30,49,34,77,83,2022-08-01 2:45,95,2022-08-01 11:45
204,2022-08-01 2:45,V,3,001D,60:A4:23:7F:3D:52,1.3,25.9,1014,6,5,7,12,93,2022-08-01 2:45,90,2022-08-01 11:45
205,2022-08-01 2:46,N,4,10,60:A4:23:C9:A0:4C,3,30.8,1006,12,13,14,26,76,2022-08-01 2:46,97,2022-08-01 11:46
206,2022-08-01 2:47,N,4,19,60:A4:23:D4:5D:84,3,34.3,1029,43,57,46,100,80,2022-08-01 2:47,95,2022-08-01 11:47
207,2022-08-01 2:48,N,4,13,60:A4:23:C9:A0:3E,3,33.6,1023,15,16,11,29,80,2022-08-01 2:48,96,2022-08-01 11:48
208,2022-08-01 2:50,N,4,14,60:A4:23:C9:A0:2F,3.1,33,1016,6,7,7,14,71,2022-08-01 2:50,96,2022-08-01 11:50
209,2022-08-01 2:51,N,4,11,60:A4:23:C9:A0:9B,3,33.6,1010,27,26,22,51,67,2022-08-01 2:51,97,2022-08-01 11:51
210,2022-08-01 2:52,N,4,15,60:A4:23:C9:A0:3B,3,32.9,1026,8,10,11,20,74,2022-08-01 2:52,96,2022-08-01 11:52
211,2022-08-01 2:52,V,3,001A,60:A4:23:7C:A5:F3,1.1,28.4,1015,9,7,16,23,91,2022-08-01 2:52,90,2022-08-01 11:52
212,2022-08-01 2:52,N,4,12,60:A4:23:C9:A0:4D,3,28.6,1022,23,29,22,50,72,2022-08-01 2:52,97,2022-08-01 11:52
213,2022-08-01 2:52,N,4,16,60:A4:23:D4:5D:A3,3.1,31,1006,20,19,18,39,72,2022-08-01 2:52,96,2022-08-01 11:53
214,2022-08-01 2:54,V,3,001E,60:A4:23:7F:3D:60,1.3,29.5,1014,4,4,5,9,93,2022-08-01 2:54,91,2022-08-01 11:54
215,2022-08-01 2:54,N,4,17,60:A4:23:D4:5D:C7,3.1,31,1009,36,35,32,69,75,2022-08-01 2:54,96,2022-08-01 11:54
216,2022-08-01 2:55,N,4,18,60:A4:23:C9:A0:E3,3.1,33.9,1006,11,12,12,24,71,2022-08-01 2:55,96,2022-08-01 11:55
217,2022-08-01 2:55,V,3,001D,60:A4:23:7F:3D:52,1.3,25.6,1014,4,4,6,10,92,2022-08-01 2:55,91,2022-08-01 11:55
218,2022-08-01 2:56,N,4,10,60:A4:23:C9:A0:4C,3,30.7,1006,10,12,11,22,74,2022-08-01 2:56,98,2022-08-01 11:56
219,2022-08-01 2:57,N,4,19,60:A4:23:D4:5D:84,3,35.1,1029,8,8,8,17,86,2022-08-01 2:57,96,2022-08-01 11:57
220,2022-08-01 2:58,N,4,13,60:A4:23:C9:A0:3E,3,31.6,1023,23,26,17,45,80,2022-08-01 2:58,97,2022-08-01 11:58
221,2022-08-01 3:00,N,4,14,60:A4:23:C9:A0:2F,3.1,33.4,1016,6,8,8,15,69,2022-08-01 3:00,97,2022-08-01 12:00
222,2022-08-01 3:01,N,4,11,60:A4:23:C9:A0:9B,3,32.9,1010,22,18,18,39,66,2022-08-01 3:01,98,2022-08-01 12:01
223,2022-08-01 3:02,N,4,15,60:A4:23:C9:A0:3B,3,32.8,1026,7,7,9,16,74,2022-08-01 3:02,97,2022-08-01 12:02
224,2022-08-01 3:02,N,4,12,60:A4:23:C9:A0:4D,3,28.3,1022,6,8,8,15,66,2022-08-01 3:02,98,2022-08-01 12:02
225,2022-08-01 3:02,N,4,16,60:A4:23:D4:5D:A3,3.1,30.8,1006,11,13,12,25,68,2022-08-01 3:02,97,2022-08-01 12:03
226,2022-08-01 3:04,N,4,17,60:A4:23:D4:5D:C7,3.1,31.7,1009,6,7,6,13,77,2022-08-01 3:04,97,2022-08-01 12:04
227,2022-08-01 3:05,V,3,001C,60:A4:23:7F:49:30,1.3,30,1014,4,4,5,10,87,2022-08-01 3:05,62,2022-08-01 12:05
228,2022-08-01 3:05,N,4,18,60:A4:23:C9:A0:E3,3.1,34.1,1006,15,24,15,38,72,2022-08-01 3:05,97,2022-08-01 12:05
229,2022-08-01 3:05,V,3,001D,60:A4:23:7F:3D:52,1.3,25.6,1014,5,4,5,10,95,2022-08-01 3:05,92,2022-08-01 12:05
230,2022-08-01 3:06,N,4,10,60:A4:23:C9:A0:4C,3,30.8,1006,14,17,14,31,85,2022-08-01 3:06,99,2022-08-01 12:06
231,2022-08-01 3:07,N,4,19,60:A4:23:D4:5D:84,3,35,1029,29,28,19,50,78,2022-08-01 3:07,97,2022-08-01 12:07
232,2022-08-01 3:08,N,4,13,60:A4:23:C9:A0:3E,3,31.4,1023,25,28,20,50,80,2022-08-01 3:08,98,2022-08-01 12:08
233,2022-08-01 3:10,N,4,14,60:A4:23:C9:A0:2F,3.1,33.2,1016,23,33,26,56,66,2022-08-01 3:10,98,2022-08-01 12:10
234,2022-08-01 3:11,N,4,11,60:A4:23:C9:A0:9B,3,32.9,1010,18,19,16,36,72,2022-08-01 3:11,99,2022-08-01 12:11
235,2022-08-01 3:12,N,4,15,60:A4:23:C9:A0:3B,3,32.8,1026,8,12,11,21,71,2022-08-01 3:12,98,2022-08-01 12:12
236,2022-08-01 3:12,N,4,12,60:A4:23:C9:A0:4D,3,28.6,1022,9,11,11,22,72,2022-08-01 3:12,99,2022-08-01 12:12
237,2022-08-01 3:12,N,4,16,60:A4:23:D4:5D:A3,3.1,30.9,1006,13,19,16,33,77,2022-08-01 3:12,98,2022-08-01 12:13
238,2022-08-01 3:14,V,3,001E,60:A4:23:7F:3D:60,1.3,29.4,1014,4,4,5,10,93,2022-08-01 3:14,93,2022-08-01 12:14
239,2022-08-01 3:14,N,4,17,60:A4:23:D4:5D:C7,3.1,32.1,1009,12,13,10,24,72,2022-08-01 3:14,98,2022-08-01 12:14
240,2022-08-01 3:15,V,3,001C,60:A4:23:7F:49:30,1.3,30.1,1014,4,4,6,10,88,2022-08-01 3:15,63,2022-08-01 12:15
241,2022-08-01 3:15,N,4,18,60:A4:23:C9:A0:E3,3.1,34.6,1006,22,28,22,48,78,2022-08-01 3:15,98,2022-08-01 12:15
242,2022-08-01 3:16,N,4,10,60:A4:23:C9:A0:4C,3,31.2,1006,29,28,15,49,88,2022-08-01 3:16,100,2022-08-01 12:16
243,2022-08-01 3:17,N,4,19,60:A4:23:D4:5D:84,3,34.6,1029,27,26,17,47,82,2022-08-01 3:17,98,2022-08-01 12:17
244,2022-08-01 3:18,N,4,13,60:A4:23:C9:A0:3E,3,31.9,1023,16,21,15,36,90,2022-08-01 3:18,99,2022-08-01 12:18
245,2022-08-01 3:20,N,4,14,60:A4:23:C9:A0:2F,3.1,33,1016,20,22,19,41,69,2022-08-01 3:20,99,2022-08-01 12:20
246,2022-08-01 3:21,N,4,11,60:A4:23:C9:A0:9B,3,32.2,1010,7,11,10,19,68,2022-08-01 3:21,100,2022-08-01 12:21
247,2022-08-01 3:22,N,4,15,60:A4:23:C9:A0:3B,3,31.7,1026,24,32,26,56,71,2022-08-01 3:22,99,2022-08-01 12:22
248,2022-08-01 3:22,V,3,001A,60:A4:23:7C:A5:F3,1.1,28.4,1014,4,4,6,10,92,2022-08-01 3:22,93,2022-08-01 12:22
249,2022-08-01 3:22,N,4,12,60:A4:23:C9:A0:4D,3,29,1022,12,15,13,27,78,2022-08-01 3:22,100,2022-08-01 12:22
250,2022-08-01 3:22,N,4,16,60:A4:23:D4:5D:A3,3.1,32,1006,19,24,22,44,66,2022-08-01 3:22,99,2022-08-01 12:23
251,2022-08-01 3:24,N,4,17,60:A4:23:D4:5D:C7,3.1,31.7,1009,56,83,58,133,66,2022-08-01 3:24,99,2022-08-01 12:24
252,2022-08-01 3:25,V,3,001C,60:A4:23:7F:49:30,1.3,30.1,1014,4,4,5,10,88,2022-08-01 3:25,64,2022-08-01 12:25
253,2022-08-01 3:25,N,4,18,60:A4:23:C9:A0:E3,3.1,34,1006,39,68,47,105,92,2022-08-01 3:25,99,2022-08-01 12:25
254,2022-08-01 3:25,V,3,001D,60:A4:23:7F:3D:52,1.3,25.7,1014,5,4,6,10,93,2022-08-01 3:25,94,2022-08-01 12:25
255,2022-08-01 3:26,N,4,10,60:A4:23:C9:A0:4C,3,31.4,1006,27,45,30,70,80,2022-08-01 3:26,101,2022-08-01 12:26
256,2022-08-01 3:27,N,4,19,60:A4:23:D4:5D:84,3,34.3,1029,27,29,17,49,70,2022-08-01 3:27,99,2022-08-01 12:27
257,2022-08-01 3:28,N,4,13,60:A4:23:C9:A0:3E,3,33.1,1023,12,15,12,27,80,2022-08-01 3:28,100,2022-08-01 12:28
258,2022-08-01 3:30,N,4,14,60:A4:23:C9:A0:2F,3.1,32.9,1016,85,90,75,170,72,2022-08-01 3:30,100,2022-08-01 12:30
259,2022-08-01 3:31,N,4,11,60:A4:23:C9:A0:9B,3,32.5,1010,43,51,37,87,72,2022-08-01 3:31,101,2022-08-01 12:31
260,2022-08-01 3:32,N,4,15,60:A4:23:C9:A0:3B,3,31.4,1026,23,29,21,49,78,2022-08-01 3:32,100,2022-08-01 12:32
261,2022-08-01 3:32,V,3,001A,60:A4:23:7C:A5:F3,1.1,28.4,1014,4,4,6,10,94,2022-08-01 3:32,94,2022-08-01 12:32
262,2022-08-01 3:32,N,4,12,60:A4:23:C9:A0:4D,3,28.7,1022,28,32,29,61,73,2022-08-01 3:32,101,2022-08-01 12:32
263,2022-08-01 3:32,N,4,16,60:A4:23:D4:5D:A3,3.1,32.1,1006,25,34,29,59,72,2022-08-01 3:32,100,2022-08-01 12:33
264,2022-08-01 3:34,N,4,17,60:A4:23:D4:5D:C7,3.1,31.7,1009,57,71,58,125,91,2022-08-01 3:34,100,2022-08-01 12:34
265,2022-08-01 3:35,N,4,18,60:A4:23:C9:A0:E3,3.1,33.6,1006,45,53,41,94,85,2022-08-01 3:35,100,2022-08-01 12:35
266,2022-08-01 3:35,V,3,001D,60:A4:23:7F:3D:52,1.3,25.7,1014,5,4,6,10,92,2022-08-01 3:35,95,2022-08-01 12:35
267,2022-08-01 3:36,N,4,10,60:A4:23:C9:A0:4C,3,31.6,1006,30,35,22,58,84,2022-08-01 3:36,102,2022-08-01 12:36
268,2022-08-01 3:37,N,4,19,60:A4:23:D4:5D:84,3,34.2,1029,27,31,21,54,76,2022-08-01 3:37,100,2022-08-01 12:37
269,2022-08-01 3:38,N,4,13,60:A4:23:C9:A0:3E,3,33.5,1023,22,28,21,47,88,2022-08-01 3:38,101,2022-08-01 12:38
270,2022-08-01 3:40,N,4,14,60:A4:23:C9:A0:2F,3.1,32.9,1016,50,60,50,108,67,2022-08-01 3:40,101,2022-08-01 12:40
271,2022-08-01 3:41,N,4,11,60:A4:23:C9:A0:9B,3,32.8,1010,61,52,38,102,68,2022-08-01 3:41,102,2022-08-01 12:41
272,2022-08-01 3:42,N,4,15,60:A4:23:C9:A0:3B,3,31.4,1026,49,59,49,106,78,2022-08-01 3:42,101,2022-08-01 12:42
273,2022-08-01 3:42,V,3,001A,60:A4:23:7C:A5:F3,1.1,28.4,1014,4,4,6,10,88,2022-08-01 3:42,95,2022-08-01 12:42
274,2022-08-01 3:42,N,4,12,60:A4:23:C9:A0:4D,3,28.6,1022,37,48,35,80,73,2022-08-01 3:42,102,2022-08-01 12:42
275,2022-08-01 3:42,N,4,16,60:A4:23:D4:5D:A3,3.1,32,1006,25,30,26,55,71,2022-08-01 3:42,101,2022-08-01 12:43
276,2022-08-01 3:44,N,4,17,60:A4:23:D4:5D:C7,3.1,31.6,1009,53,68,55,120,85,2022-08-01 3:44,101,2022-08-01 12:44
277,2022-08-01 3:45,V,3,001C,60:A4:23:7F:49:30,1.3,30.2,1014,4,4,5,10,87,2022-08-01 3:45,66,2022-08-01 12:45
278,2022-08-01 3:45,N,4,18,60:A4:23:C9:A0:E3,3.1,33.5,1006,51,63,53,112,93,2022-08-01 3:45,101,2022-08-01 12:45
279,2022-08-01 3:46,N,4,10,60:A4:23:C9:A0:4C,3,31.5,1006,45,69,48,111,68,2022-08-01 3:46,103,2022-08-01 12:46
280,2022-08-01 3:47,N,4,19,60:A4:23:D4:5D:84,3,34.2,1029,59,91,70,148,73,2022-08-01 3:47,101,2022-08-01 12:47
281,2022-08-01 3:48,N,4,13,60:A4:23:C9:A0:3E,3,33.3,1023,39,49,33,82,84,2022-08-01 3:48,102,2022-08-01 12:48
282,2022-08-01 3:50,N,4,14,60:A4:23:C9:A0:2F,3.1,33.3,1016,50,58,49,105,67,2022-08-01 3:50,102,2022-08-01 12:50
283,2022-08-01 3:51,N,4,11,60:A4:23:C9:A0:9B,3,33,1010,67,52,45,111,70,2022-08-01 3:51,103,2022-08-01 12:51
284,2022-08-01 3:52,N,4,15,60:A4:23:C9:A0:3B,3,32.3,1026,12,15,12,27,73,2022-08-01 3:52,102,2022-08-01 12:52
285,2022-08-01 3:52,V,3,001A,60:A4:23:7C:A5:F3,1.1,28.5,1014,4,4,6,10,94,2022-08-01 3:52,96,2022-08-01 12:52
286,2022-08-01 3:52,N,4,12,60:A4:23:C9:A0:4D,3,29.5,1022,76,89,73,160,66,2022-08-01 3:52,103,2022-08-01 12:52
287,2022-08-01 3:52,N,4,16,60:A4:23:D4:5D:A3,3.1,32.4,1006,23,32,26,55,81,2022-08-01 3:52,102,2022-08-01 12:52
288,2022-08-01 3:54,N,4,17,60:A4:23:D4:5D:C7,3.1,31.3,1009,43,54,39,92,78,2022-08-01 3:54,102,2022-08-01 12:54
289,2022-08-01 3:55,V,3,001C,60:A4:23:7F:49:30,1.3,30.2,1014,4,4,5,10,87,2022-08-01 3:55,67,2022-08-01 12:55
290,2022-08-01 3:55,N,4,18,60:A4:23:C9:A0:E3,3.1,33.9,1006,24,38,22,57,72,2022-08-01 3:55,102,2022-08-01 12:55
291,2022-08-01 3:55,V,3,001D,60:A4:23:7F:3D:52,1.3,25.8,1014,5,4,6,10,91,2022-08-01 3:55,97,2022-08-01 12:55
292,2022-08-01 3:56,N,4,10,60:A4:23:C9:A0:4C,3,31,1006,62,88,58,141,71,2022-08-01 3:56,104,2022-08-01 12:56
293,2022-08-01 3:57,N,4,19,60:A4:23:D4:5D:84,3,34.8,1029,148,169,151,313,83,2022-08-01 3:57,102,2022-08-01 12:57
294,2022-08-01 3:58,N,4,13,60:A4:23:C9:A0:3E,3,33.6,1023,70,78,64,143,70,2022-08-01 3:58,103,2022-08-01 12:58
295,2022-08-01 4:00,N,4,14,60:A4:23:C9:A0:2F,3.1,33.2,1016,53,64,52,114,74,2022-08-01 4:00,103,2022-08-01 13:00
296,2022-08-01 4:01,N,4,11,60:A4:23:C9:A0:9B,3,33.3,1010,60,56,49,112,63,2022-08-01 4:01,104,2022-08-01 13:01
297,2022-08-01 4:02,N,4,15,60:A4:23:C9:A0:3B,3,32.9,1026,13,20,17,34,66,2022-08-01 4:02,103,2022-08-01 13:02
298,2022-08-01 4:02,V,3,001A,60:A4:23:7C:A5:F3,1.1,28.5,1014,4,4,5,10,92,2022-08-01 4:02,97,2022-08-01 13:02
299,2022-08-01 4:02,N,4,12,60:A4:23:C9:A0:4D,3,30.5,1022,52,73,56,122,70,2022-08-01 4:02,104,2022-08-01 13:02
300,2022-08-01 4:02,N,4,16,60:A4:23:D4:5D:A3,3.1,32.6,1006,34,43,34,74,73,2022-08-01 4:02,103,2022-08-01 13:03
301,2022-08-01 4:04,N,4,17,60:A4:23:D4:5D:C7,3.1,31.4,1009,46,67,43,107,83,2022-08-01 4:04,103,2022-08-01 13:04
302,2022-08-01 4:05,N,4,18,60:A4:23:C9:A0:E3,3.1,34.4,1006,39,54,37,90,73,2022-08-01 4:05,103,2022-08-01 13:05
303,2022-08-01 4:05,V,3,001D,60:A4:23:7F:3D:52,1.4,25.8,1014,5,4,5,10,92,2022-08-01 4:05,98,2022-08-01 13:05
304,2022-08-01 4:06,N,4,10,60:A4:23:C9:A0:4C,3,31.2,1006,56,81,50,129,81,2022-08-01 4:06,105,2022-08-01 13:06
305,2022-08-01 4:07,N,4,19,60:A4:23:D4:5D:84,3,35.2,1029,98,120,100,211,73,2022-08-01 4:07,103,2022-08-01 13:07
306,2022-08-01 4:08,N,4,13,60:A4:23:C9:A0:3E,3,33.9,1023,41,43,32,78,69,2022-08-01 4:08,104,2022-08-01 13:08
307,2022-08-01 4:10,N,4,14,60:A4:23:C9:A0:2F,3.1,33.8,1016,55,61,54,113,71,2022-08-01 4:10,104,2022-08-01 13:10
308,2022-08-01 4:11,N,4,11,60:A4:23:C9:A0:9B,3,33.7,1010,35,38,28,68,68,2022-08-01 4:11,105,2022-08-01 13:11
309,2022-08-01 4:12,N,4,15,60:A4:23:C9:A0:3B,3,32.9,1026,57,75,52,125,63,2022-08-01 4:12,104,2022-08-01 13:12
310,2022-08-01 4:12,V,3,001A,60:A4:23:7C:A5:F3,1.1,28.6,1014,4,4,6,10,92,2022-08-01 4:12,98,2022-08-01 13:12
311,2022-08-01 4:12,N,4,12,60:A4:23:C9:A0:4D,3,30.5,1022,28,32,28,59,72,2022-08-01 4:12,105,2022-08-01 13:12
312,2022-08-01 4:12,N,4,16,60:A4:23:D4:5D:A3,3.1,32.7,1006,43,58,46,99,72,2022-08-01 4:12,104,2022-08-01 13:13
313,2022-08-01 4:14,N,4,17,60:A4:23:D4:5D:C7,3.1,31.6,1009,41,59,44,99,72,2022-08-01 4:14,104,2022-08-01 13:14
314,2022-08-01 4:15,N,4,18,60:A4:23:C9:A0:E3,3.1,34.5,1006,34,59,41,92,76,2022-08-01 4:15,104,2022-08-01 13:15
315,2022-08-01 4:15,V,3,001D,60:A4:23:7F:3D:52,1.3,25.8,1014,5,5,5,10,97,2022-08-01 4:15,99,2022-08-01 13:15
316,2022-08-01 4:16,N,4,10,60:A4:23:C9:A0:4C,3,31.4,1006,37,46,32,78,84,2022-08-01 4:16,106,2022-08-01 13:16
317,2022-08-01 4:17,N,4,19,60:A4:23:D4:5D:84,3,35.4,1029,61,87,68,146,69,2022-08-01 4:17,104,2022-08-01 13:17
318,2022-08-01 4:18,N,4,13,60:A4:23:C9:A0:3E,3,33.9,1023,30,31,18,55,82,2022-08-01 4:18,105,2022-08-01 13:18
319,2022-08-01 4:20,N,4,14,60:A4:23:C9:A0:2F,3.1,34,1016,65,67,60,129,66,2022-08-01 4:20,105,2022-08-01 13:20
320,2022-08-01 4:21,N,4,11,60:A4:23:C9:A0:9B,3,33.8,1010,57,49,41,99,71,2022-08-01 4:21,106,2022-08-01 13:21
321,2022-08-01 4:22,N,4,15,60:A4:23:C9:A0:3B,3,32.7,1026,70,78,74,150,73,2022-08-01 4:22,105,2022-08-01 13:22
322,2022-08-01 4:22,V,3,001A,60:A4:23:7C:A5:F3,1.1,28.6,1014,5,4,6,11,92,2022-08-01 4:22,99,2022-08-01 13:22
323,2022-08-01 4:22,N,4,12,60:A4:23:C9:A0:4D,3,30.3,1022,12,16,15,30,71,2022-08-01 4:22,106,2022-08-01 13:22
324,2022-08-01 4:22,N,4,16,60:A4:23:D4:5D:A3,3.1,33.1,1006,43,56,44,97,69,2022-08-01 4:22,105,2022-08-01 13:22
325,2022-08-01 4:24,N,4,17,60:A4:23:D4:5D:C7,3.1,31.9,1009,47,57,37,96,74,2022-08-01 4:24,105,2022-08-01 13:24
326,2022-08-01 4:25,V,3,001C,60:A4:23:7F:49:30,1.3,30.4,1014,4,4,5,10,85,2022-08-01 4:25,70,2022-08-01 13:25
327,2022-08-01 4:25,N,4,18,60:A4:23:C9:A0:E3,3.1,34.6,1006,32,41,42,79,78,2022-08-01 4:25,105,2022-08-01 13:25
328,2022-08-01 4:25,V,3,001D,60:A4:23:7F:3D:52,1.3,25.9,1014,5,4,6,10,95,2022-08-01 4:25,100,2022-08-01 13:25
329,2022-08-01 4:26,N,4,10,60:A4:23:C9:A0:4C,3,31.9,1006,8,10,8,18,81,2022-08-01 4:26,107,2022-08-01 13:26
330,2022-08-01 4:27,N,4,19,60:A4:23:D4:5D:84,3,35.4,1029,98,131,96,217,79,2022-08-01 4:27,105,2022-08-01 13:27
331,2022-08-01 4:28,N,4,13,60:A4:23:C9:A0:3E,3,33.8,1023,30,29,20,54,78,2022-08-01 4:28,106,2022-08-01 13:28
332,2022-08-01 4:30,N,4,14,60:A4:23:C9:A0:2F,3.1,34,1016,59,73,56,128,83,2022-08-01 4:30,106,2022-08-01 13:30
333,2022-08-01 4:31,N,4,11,60:A4:23:C9:A0:9B,3,33.5,1010,85,69,53,140,78,2022-08-01 4:31,107,2022-08-01 13:31
334,2022-08-01 4:32,N,4,15,60:A4:23:C9:A0:3B,3,32.5,1026,22,28,24,50,79,2022-08-01 4:32,106,2022-08-01 13:32
335,2022-08-01 4:32,V,3,001A,60:A4:23:7C:A5:F3,1.1,28.7,1014,7,6,10,16,88,2022-08-01 4:32,100,2022-08-01 13:32
336,2022-08-01 4:32,N,4,12,60:A4:23:C9:A0:4D,3,30.2,1022,30,39,27,64,74,2022-08-01 4:32,107,2022-08-01 13:32
337,2022-08-01 4:32,N,4,16,60:A4:23:D4:5D:A3,3.1,33.3,1006,22,26,24,48,73,2022-08-01 4:32,106,2022-08-01 13:32
338,2022-08-01 4:34,N,4,17,60:A4:23:D4:5D:C7,3.1,32.2,1009,48,65,53,112,77,2022-08-01 4:34,106,2022-08-01 13:34
339,2022-08-01 4:35,V,3,001C,60:A4:23:7F:49:30,1.3,30.6,1014,6,5,8,13,88,2022-08-01 4:35,71,2022-08-01 13:35
340,2022-08-01 4:35,N,4,18,60:A4:23:C9:A0:E3,3.1,34.6,1006,44,53,48,97,84,2022-08-01 4:35,106,2022-08-01 13:35
341,2022-08-01 4:35,V,3,001D,60:A4:23:7F:3D:52,1.3,26.2,1014,5,4,6,11,94,2022-08-01 4:35,101,2022-08-01 13:35
342,2022-08-01 4:36,N,4,10,60:A4:23:C9:A0:4C,3,32.1,1006,24,32,17,50,75,2022-08-01 4:36,108,2022-08-01 13:36
343,2022-08-01 4:37,N,4,19,60:A4:23:D4:5D:84,3,35.6,1029,78,98,66,163,80,2022-08-01 4:37,106,2022-08-01 13:37
344,2022-08-01 4:38,N,4,13,60:A4:23:C9:A0:3E,3,33.8,1023,60,80,63,137,75,2022-08-01 4:38,107,2022-08-01 13:38
345,2022-08-01 4:40,N,4,14,60:A4:23:C9:A0:2F,3.1,34,1016,64,81,58,136,70,2022-08-01 4:40,107,2022-08-01 13:40
346,2022-08-01 4:41,N,4,11,60:A4:23:C9:A0:9B,3,33.6,1010,65,57,40,109,77,2022-08-01 4:41,108,2022-08-01 13:41
347,2022-08-01 4:42,N,4,15,60:A4:23:C9:A0:3B,3,32.4,1026,36,38,32,70,74,2022-08-01 4:42,107,2022-08-01 13:42
348,2022-08-01 4:42,N,4,12,60:A4:23:C9:A0:4D,3,29.9,1022,40,46,34,80,76,2022-08-01 4:42,108,2022-08-01 13:42
349,2022-08-01 4:42,N,4,16,60:A4:23:D4:5D:A3,3.1,33,1006,33,41,35,73,68,2022-08-01 4:42,107,2022-08-01 13:42
350,2022-08-01 4:44,N,4,17,60:A4:23:D4:5D:C7,3.1,32.4,1009,54,72,58,125,81,2022-08-01 4:44,107,2022-08-01 13:44
351,2022-08-01 4:45,V,3,001C,60:A4:23:7F:49:30,1.3,30.8,1014,6,5,9,14,87,2022-08-01 4:45,72,2022-08-01 13:45
352,2022-08-01 4:45,N,4,18,60:A4:23:C9:A0:E3,3.1,34.4,1006,38,55,42,91,74,2022-08-01 4:45,107,2022-08-01 13:45
353,2022-08-01 4:46,N,4,10,60:A4:23:C9:A0:4C,3,31.8,1006,33,52,28,78,72,2022-08-01 4:46,109,2022-08-01 13:46
354,2022-08-01 4:47,N,4,19,60:A4:23:D4:5D:84,3,35.2,1029,95,114,102,209,80,2022-08-01 4:47,107,2022-08-01 13:47
355,2022-08-01 4:48,N,4,13,60:A4:23:C9:A0:3E,3,33.9,1023,77,103,80,173,77,2022-08-01 4:48,108,2022-08-01 13:48
356,2022-08-01 4:50,N,4,14,60:A4:23:C9:A0:2F,3.1,33.7,1016,51,69,47,113,69,2022-08-01 4:50,108,2022-08-01 13:50
357,2022-08-01 4:51,N,4,11,60:A4:23:C9:A0:9B,3,33.5,1010,52,54,43,99,70,2022-08-01 4:51,109,2022-08-01 13:51
358,2022-08-01 4:52,N,4,15,60:A4:23:C9:A0:3B,3,31.9,1026,84,89,82,172,70,2022-08-01 4:52,108,2022-08-01 13:52
359,2022-08-01 4:52,V,3,001A,60:A4:23:7C:A5:F3,1.1,29,1014,10,8,20,27,90,2022-08-01 4:52,102,2022-08-01 13:52
360,2022-08-01 4:52,N,4,12,60:A4:23:C9:A0:4D,3,29.6,1022,61,68,57,125,72,2022-08-01 4:52,109,2022-08-01 13:52
361,2022-08-01 4:52,N,4,16,60:A4:23:D4:5D:A3,3.1,32.7,1006,54,70,55,121,84,2022-08-01 4:52,108,2022-08-01 13:52
362,2022-08-01 4:54,N,4,17,60:A4:23:D4:5D:C7,3.1,31.9,1009,60,53,53,112,76,2022-08-01 4:54,108,2022-08-01 13:54
363,2022-08-01 4:55,N,4,18,60:A4:23:C9:A0:E3,3.1,34.5,1006,67,86,83,160,78,2022-08-01 4:55,108,2022-08-01 13:55
364,2022-08-01 4:56,N,4,10,60:A4:23:C9:A0:4C,3,31.2,1006,94,100,77,180,91,2022-08-01 4:56,110,2022-08-01 13:56
365,2022-08-01 4:57,N,4,19,60:A4:23:D4:5D:84,3,34.8,1029,65,73,66,136,76,2022-08-01 4:57,108,2022-08-01 13:57
366,2022-08-01 4:58,N,4,13,60:A4:23:C9:A0:3E,3,33.7,1023,76,79,81,158,69,2022-08-01 4:58,109,2022-08-01 13:58
367,2022-08-01 5:00,N,4,14,60:A4:23:C9:A0:2F,3.1,33.1,1016,79,86,79,164,64,2022-08-01 5:00,109,2022-08-01 14:00
368,2022-08-01 5:01,N,4,11,60:A4:23:C9:A0:9B,3,33.5,1010,58,59,44,108,69,2022-08-01 5:01,110,2022-08-01 14:01
369,2022-08-01 5:02,N,4,15,60:A4:23:C9:A0:3B,3,31.6,1026,112,106,102,214,67,2022-08-01 5:02,109,2022-08-01 14:02
370,2022-08-01 5:02,V,3,001A,60:A4:23:7C:A5:F3,1.1,29.1,1014,10,7,20,26,92,2022-08-01 5:02,103,2022-08-01 14:02
371,2022-08-01 5:02,N,4,12,60:A4:23:C9:A0:4D,3,29.5,1022,76,95,82,169,80,2022-08-01 5:02,110,2022-08-01 14:02
372,2022-08-01 5:02,N,4,16,60:A4:23:D4:5D:A3,3.1,32.7,1006,62,64,55,121,82,2022-08-01 5:02,109,2022-08-01 14:02
373,2022-08-01 5:04,N,4,17,60:A4:23:D4:5D:C7,3.1,31.9,1009,61,54,54,114,73,2022-08-01 5:04,109,2022-08-01 14:04
374,2022-08-01 5:05,N,4,18,60:A4:23:C9:A0:E3,3.1,34.1,1006,104,103,106,210,67,2022-08-01 5:05,109,2022-08-01 14:05
375,2022-08-01 5:05,V,3,001D,60:A4:23:7F:3D:52,1.4,26.4,1014,5,5,7,12,93,2022-08-01 5:05,104,2022-08-01 14:05
376,2022-08-01 5:06,N,4,10,60:A4:23:C9:A0:4C,3,31.2,1006,98,102,83,189,69,2022-08-01 5:06,111,2022-08-01 14:06
377,2022-08-01 5:07,N,4,19,60:A4:23:D4:5D:84,3,34.8,1029,44,52,46,97,76,2022-08-01 5:07,109,2022-08-01 14:07
378,2022-08-01 5:08,N,4,13,60:A4:23:C9:A0:3E,3,33.8,1023,74,98,81,171,68,2022-08-01 5:08,110,2022-08-01 14:08
379,2022-08-01 5:10,N,4,14,60:A4:23:C9:A0:2F,3.1,33.2,1016,65,90,60,146,58,2022-08-01 5:10,110,2022-08-01 14:10
380,2022-08-01 5:11,N,4,11,60:A4:23:C9:A0:9B,3,33.7,1010,70,92,53,146,73,2022-08-01 5:11,111,2022-08-01 14:11
381,2022-08-01 5:12,N,4,15,60:A4:23:C9:A0:3B,3,31.8,1026,109,149,99,242,73,2022-08-01 5:12,110,2022-08-01 14:12
382,2022-08-01 5:12,V,3,001A,60:A4:23:7C:A5:F3,1.1,29,1014,10,7,18,25,92,2022-08-01 5:12,104,2022-08-01 14:12
383,2022-08-01 5:12,N,4,12,60:A4:23:C9:A0:4D,3,30.2,1022,73,101,83,174,76,2022-08-01 5:12,111,2022-08-01 14:12
384,2022-08-01 5:12,N,4,16,60:A4:23:D4:5D:A3,3.1,33.2,1006,94,128,89,209,69,2022-08-01 5:12,110,2022-08-01 14:12
385,2022-08-01 5:14,N,4,17,60:A4:23:D4:5D:C7,3.1,32.3,1009,87,127,75,196,73,2022-08-01 5:14,110,2022-08-01 14:14
386,2022-08-01 5:15,V,3,001C,60:A4:23:7F:49:30,1.3,30.7,1014,6,5,11,15,87,2022-08-01 5:15,75,2022-08-01 14:15
387,2022-08-01 5:15,N,4,18,60:A4:23:C9:A0:E3,3.1,34.4,1006,82,124,80,194,73,2022-08-01 5:15,110,2022-08-01 14:15
388,2022-08-01 5:15,V,3,001D,60:A4:23:7F:3D:52,1.3,26.4,1014,5,5,6,11,94,2022-08-01 5:15,105,2022-08-01 14:15
389,2022-08-01 5:16,N,4,10,60:A4:23:C9:A0:4C,3,31.1,1006,72,101,67,162,78,2022-08-01 5:16,112,2022-08-01 14:16
390,2022-08-01 5:17,N,4,19,60:A4:23:D4:5D:84,3,35.2,1029,47,69,47,110,75,2022-08-01 5:17,110,2022-08-01 14:17
391,2022-08-01 5:18,N,4,13,60:A4:23:C9:A0:3E,3,34,1023,74,108,65,169,74,2022-08-01 5:18,111,2022-08-01 14:18
392,2022-08-01 5:20,N,4,14,60:A4:23:C9:A0:2F,3.1,33.4,1016,73,96,73,162,77,2022-08-01 5:20,111,2022-08-01 14:20
393,2022-08-01 5:21,N,4,11,60:A4:23:C9:A0:9B,3,34.3,1010,73,96,51,148,81,2022-08-01 5:21,112,2022-08-01 14:21
394,2022-08-01 5:22,N,4,15,60:A4:23:C9:A0:3B,3,32.3,1026,108,163,100,251,73,2022-08-01 5:22,111,2022-08-01 14:22
395,2022-08-01 5:22,V,3,001A,60:A4:23:7C:A5:F3,1.1,29,1014,11,7,16,24,90,2022-08-01 5:22,105,2022-08-01 14:22
396,2022-08-01 5:22,N,4,12,60:A4:23:C9:A0:4D,3,31.2,1022,87,102,91,188,76,2022-08-01 5:22,112,2022-08-01 14:22
397,2022-08-01 5:22,N,4,16,60:A4:23:D4:5D:A3,3.1,33.2,1006,79,111,68,175,71,2022-08-01 5:22,111,2022-08-01 14:22
398,2022-08-01 5:24,N,4,17,60:A4:23:D4:5D:C7,3.1,32.5,1009,83,111,68,179,82,2022-08-01 5:24,111,2022-08-01 14:24
399,2022-08-01 5:25,V,3,001C,60:A4:23:7F:49:30,1.3,30.7,1014,6,5,11,15,86,2022-08-01 5:25,76,2022-08-01 14:25
400,2022-08-01 5:25,N,4,18,60:A4:23:C9:A0:E3,3.1,34.9,1006,82,115,85,190,73,2022-08-01 5:25,111,2022-08-01 14:25
401,2022-08-01 5:26,N,4,10,60:A4:23:C9:A0:4C,3,31.3,1006,83,120,76,189,91,2022-08-01 5:26,113,2022-08-01 14:26
402,2022-08-01 5:27,N,4,19,60:A4:23:D4:5D:84,3,35.5,1029,51,74,54,120,66,2022-08-01 5:27,111,2022-08-01 14:27
403,2022-08-01 5:28,N,4,13,60:A4:23:C9:A0:3E,3,34.4,1023,87,116,73,186,69,2022-08-01 5:28,112,2022-08-01 14:28
404,2022-08-01 5:30,N,4,14,60:A4:23:C9:A0:2F,3.1,33.7,1016,65,98,66,156,70,2022-08-01 5:30,112,2022-08-01 14:30
405,2022-08-01 5:31,N,4,11,60:A4:23:C9:A0:9B,3,34.6,1010,68,92,52,144,69,2022-08-01 5:31,113,2022-08-01 14:31
406,2022-08-01 5:32,N,4,15,60:A4:23:C9:A0:3B,3,33,1026,110,175,107,269,78,2022-08-01 5:32,112,2022-08-01 14:32
407,2022-08-01 5:32,N,4,12,60:A4:23:C9:A0:4D,3,31.9,1022,84,97,88,180,69,2022-08-01 5:32,113,2022-08-01 14:32
408,2022-08-01 5:32,N,4,16,60:A4:23:D4:5D:A3,3.1,33.5,1006,66,108,66,163,68,2022-08-01 5:32,112,2022-08-01 14:32
409,2022-08-01 5:34,N,4,17,60:A4:23:D4:5D:C7,3.1,32.9,1009,80,106,72,174,72,2022-08-01 5:34,112,2022-08-01 14:34
410,2022-08-01 5:35,V,3,001C,60:A4:23:7F:49:30,1.3,30.9,1014,8,6,15,20,85,2022-08-01 5:35,77,2022-08-01 14:35
411,2022-08-01 5:35,N,4,18,60:A4:23:C9:A0:E3,3.1,35.3,1006,93,127,99,217,80,2022-08-01 5:35,112,2022-08-01 14:35
412,2022-08-01 5:35,V,3,001D,60:A4:23:7F:3D:52,1.3,26.5,1014,6,5,9,13,91,2022-08-01 5:35,107,2022-08-01 14:35
413,2022-08-01 5:36,N,4,10,60:A4:23:C9:A0:4C,3,31.5,1006,81,109,71,178,85,2022-08-01 5:36,114,2022-08-01 14:36
414,2022-08-01 5:37,N,4,19,60:A4:23:D4:5D:84,3,36.2,1029,26,39,27,62,79,2022-08-01 5:37,112,2022-08-01 14:37
415,2022-08-01 5:38,N,4,13,60:A4:23:C9:A0:3E,3,34.5,1023,70,100,66,161,81,2022-08-01 5:38,113,2022-08-01 14:38
416,2022-08-01 5:40,N,4,14,60:A4:23:C9:A0:2F,3.1,33.9,1016,63,92,69,152,78,2022-08-01 5:40,113,2022-08-01 14:40
417,2022-08-01 5:41,N,4,11,60:A4:23:C9:A0:9B,3,34.8,1010,71,68,52,128,60,2022-08-01 5:41,114,2022-08-01 14:41
418,2022-08-01 5:42,N,4,15,60:A4:23:C9:A0:3B,3,33.3,1026,92,139,93,221,82,2022-08-01 5:42,113,2022-08-01 14:42
419,2022-08-01 5:42,V,3,001A,60:A4:23:7C:A5:F3,1.1,29.3,1014,20,15,40,52,92,2022-08-01 5:42,107,2022-08-01 14:42
420,2022-08-01 5:42,N,4,12,60:A4:23:C9:A0:4D,3,32.2,1022,73,84,80,159,72,2022-08-01 5:42,114,2022-08-01 14:42
421,2022-08-01 5:42,N,4,16,60:A4:23:D4:5D:A3,3.1,33.6,1006,71,96,66,159,74,2022-08-01 5:42,113,2022-08-01 14:42
422,2022-08-01 5:44,N,4,17,60:A4:23:D4:5D:C7,3.1,33,1009,85,102,81,179,76,2022-08-01 5:44,113,2022-08-01 14:44
423,2022-08-01 5:45,N,4,18,60:A4:23:C9:A0:E3,3.1,35.5,1006,84,103,94,188,75,2022-08-01 5:45,113,2022-08-01 14:45
424,2022-08-01 5:45,V,3,001D,60:A4:23:7F:3D:52,1.3,26.6,1014,6,5,8,13,94,2022-08-01 5:45,108,2022-08-01 14:45
425,2022-08-01 5:46,N,4,10,60:A4:23:C9:A0:4C,3,31.8,1006,70,100,76,164,65,2022-08-01 5:46,115,2022-08-01 14:46
426,2022-08-01 5:47,N,4,19,60:A4:23:D4:5D:84,3,36.6,1029,9,11,9,20,69,2022-08-01 5:47,113,2022-08-01 14:47
427,2022-08-01 5:48,N,4,13,60:A4:23:C9:A0:3E,3,34.6,1023,64,77,64,139,72,2022-08-01 5:48,114,2022-08-01 14:48
428,2022-08-01 5:50,N,4,14,60:A4:23:C9:A0:2F,3.1,34.4,1016,55,63,56,118,69,2022-08-01 5:50,114,2022-08-01 14:50
429,2022-08-01 5:51,N,4,11,60:A4:23:C9:A0:9B,3,34.7,1010,77,68,56,135,77,2022-08-01 5:51,115,2022-08-01 14:51
430,2022-08-01 5:52,N,4,15,60:A4:23:C9:A0:3B,3,33.5,1026,130,136,124,258,81,2022-08-01 5:52,114,2022-08-01 14:52
431,2022-08-01 5:52,V,3,001A,60:A4:23:7C:A5:F3,1.1,29.4,1014,25,17,52,67,95,2022-08-01 5:52,108,2022-08-01 14:52
432,2022-08-01 5:52,N,4,12,60:A4:23:C9:A0:4D,3,32.3,1022,76,84,86,166,82,2022-08-01 5:52,115,2022-08-01 14:52
433,2022-08-01 5:52,N,4,16,60:A4:23:D4:5D:A3,3.1,33.9,1006,70,81,69,149,72,2022-08-01 5:52,114,2022-08-01 14:52
434,2022-08-01 5:54,N,4,17,60:A4:23:D4:5D:C7,3.1,33,1009,77,91,69,159,69,2022-08-01 5:54,114,2022-08-01 14:54
435,2022-08-01 5:55,V,3,001C,60:A4:23:7F:49:30,1.3,31.1,1014,8,6,15,20,86,2022-08-01 5:55,79,2022-08-01 14:55
436,2022-08-01 5:55,N,4,18,60:A4:23:C9:A0:E3,3.1,35.7,1006,73,88,76,159,71,2022-08-01 5:55,114,2022-08-01 14:55
437,2022-08-01 5:56,N,4,10,60:A4:23:C9:A0:4C,3,31.9,1006,57,72,60,128,65,2022-08-01 5:56,116,2022-08-01 14:56
438,2022-08-01 5:57,N,4,19,60:A4:23:D4:5D:84,3,36.5,1029,47,47,49,96,72,2022-08-01 5:57,114,2022-08-01 14:57
439,2022-08-01 5:58,N,4,13,60:A4:23:C9:A0:3E,3,34.6,1023,32,44,33,72,84,2022-08-01 5:58,115,2022-08-01 14:58
440,2022-08-01 6:00,N,4,14,60:A4:23:C9:A0:2F,3.1,34.9,1016,48,55,46,100,75,2022-08-01 6:00,115,2022-08-01 15:00
441,2022-08-01 6:01,N,4,11,60:A4:23:C9:A0:9B,3,34.8,1010,89,78,67,158,78,2022-08-01 6:01,116,2022-08-01 15:01
442,2022-08-01 6:02,N,4,15,60:A4:23:C9:A0:3B,3,33.7,1026,145,156,141,298,75,2022-08-01 6:02,115,2022-08-01 15:02
443,2022-08-01 6:02,N,4,12,60:A4:23:C9:A0:4D,3,31.6,1022,59,63,65,127,82,2022-08-01 6:02,116,2022-08-01 15:02
444,2022-08-01 6:02,N,4,16,60:A4:23:D4:5D:A3,3.1,34.2,1006,49,65,57,116,70,2022-08-01 6:02,115,2022-08-01 15:02
445,2022-08-01 6:04,N,4,17,60:A4:23:D4:5D:C7,3.1,33.1,1009,79,79,75,157,72,2022-08-01 6:04,115,2022-08-01 15:04
446,2022-08-01 6:05,V,3,001C,60:A4:23:7F:49:30,1.3,31.2,1014,7,5,13,19,87,2022-08-01 6:05,80,2022-08-01 15:05
447,2022-08-01 6:05,N,4,18,60:A4:23:C9:A0:E3,3.1,35.6,1006,34,37,32,69,86,2022-08-01 6:05,115,2022-08-01 15:05
448,2022-08-01 6:05,V,3,001D,60:A4:23:7F:3D:52,1.3,26.8,1014,6,5,8,13,95,2022-08-01 6:05,110,2022-08-01 15:05
449,2022-08-01 6:06,N,4,10,60:A4:23:C9:A0:4C,3,32,1006,49,64,55,114,79,2022-08-01 6:06,117,2022-08-01 15:06
450,2022-08-01 6:07,N,4,19,60:A4:23:D4:5D:84,3,36.2,1029,24,25,28,51,80,2022-08-01 6:07,115,2022-08-01 15:07
451,2022-08-01 6:08,N,4,13,60:A4:23:C9:A0:3E,3,34.9,1023,45,58,46,100,73,2022-08-01 6:08,116,2022-08-01 15:08
452,2022-08-01 6:09,V,3,001B,60:A4:23:7F:3D:48,1.3,28.7,1014,10,11,19,28,94,2022-08-01 6:09,110,2022-08-01 15:09
453,2022-08-01 6:10,N,4,14,60:A4:23:C9:A0:2F,3.1,34.7,1016,46,47,46,93,76,2022-08-01 6:10,116,2022-08-01 15:10
454,2022-08-01 6:11,N,4,11,60:A4:23:C9:A0:9B,3,34.7,1010,58,58,48,112,70,2022-08-01 6:11,117,2022-08-01 15:11
455,2022-08-01 6:12,N,4,15,60:A4:23:C9:A0:3B,3,33.5,1026,126,137,120,256,68,2022-08-01 6:12,116,2022-08-01 15:12
456,2022-08-01 6:12,V,3,001A,60:A4:23:7C:A5:F3,1.1,29.6,1014,22,14,41,55,93,2022-08-01 6:12,110,2022-08-01 15:12
457,2022-08-01 6:12,N,4,12,60:A4:23:C9:A0:4D,3,30.1,1022,47,53,54,105,74,2022-08-01 6:12,117,2022-08-01 15:12
458,2022-08-01 6:12,N,4,16,60:A4:23:D4:5D:A3,3.1,34,1006,62,74,56,131,76,2022-08-01 6:12,116,2022-08-01 15:12
459,2022-08-01 6:14,N,4,17,60:A4:23:D4:5D:C7,3.1,32.7,1009,52,73,50,119,71,2022-08-01 6:14,116,2022-08-01 15:14
460,2022-08-01 6:15,V,3,001C,60:A4:23:7F:49:30,1.3,31.2,1014,8,6,14,19,85,2022-08-01 6:15,81,2022-08-01 15:15
461,2022-08-01 6:15,N,4,18,60:A4:23:C9:A0:E3,3.1,36,1006,48,76,54,121,85,2022-08-01 6:15,116,2022-08-01 15:15
462,2022-08-01 6:15,V,3,001D,60:A4:23:7F:3D:52,1.4,26.8,1014,6,5,8,13,93,2022-08-01 6:15,111,2022-08-01 15:15
463,2022-08-01 6:16,N,4,10,60:A4:23:C9:A0:4C,3,31.8,1006,60,74,52,126,78,2022-08-01 6:16,118,2022-08-01 15:16
464,2022-08-01 6:17,N,4,19,60:A4:23:D4:5D:84,3,35.4,1029,95,120,91,206,76,2022-08-01 6:17,116,2022-08-01 15:17
465,2022-08-01 6:18,N,4,13,60:A4:23:C9:A0:3E,3,34.3,1023,80,97,71,164,98,2022-08-01 6:18,117,2022-08-01 15:18
466,2022-08-01 6:20,N,4,14,60:A4:23:C9:A0:2F,3.1,34.5,1016,27,46,31,71,81,2022-08-01 6:20,117,2022-08-01 15:20
467,2022-08-01 6:20,N,4,11,60:A4:23:C9:A0:9B,3,34.4,1010,98,79,60,159,77,2022-08-01 6:20,118,2022-08-01 15:21
468,2022-08-01 6:22,N,4,15,60:A4:23:C9:A0:3B,3,33.4,1026,32,47,32,75,78,2022-08-01 6:22,117,2022-08-01 15:22
469,2022-08-01 6:22,V,3,001A,60:A4:23:7C:A5:F3,1.1,29.5,1014,21,17,47,61,93,2022-08-01 6:22,111,2022-08-01 15:22
470,2022-08-01 6:22,N,4,12,60:A4:23:C9:A0:4D,3,30.1,1022,88,99,98,193,64,2022-08-01 6:22,118,2022-08-01 15:22
471,2022-08-01 6:22,N,4,16,60:A4:23:D4:5D:A3,3.1,33.5,1006,73,82,67,149,87,2022-08-01 6:22,117,2022-08-01 15:22
472,2022-08-01 6:24,N,4,17,60:A4:23:D4:5D:C7,3.1,32.4,1009,41,62,46,101,79,2022-08-01 6:24,117,2022-08-01 15:24
473,2022-08-01 6:25,V,3,001C,60:A4:23:7F:49:30,1.3,31.2,1013,8,6,15,21,84,2022-08-01 6:25,82,2022-08-01 15:25
474,2022-08-01 6:25,N,4,18,60:A4:23:C9:A0:E3,3.1,35.2,1006,59,85,63,140,77,2022-08-01 6:25,117,2022-08-01 15:25
475,2022-08-01 6:25,V,3,001D,60:A4:23:7F:3D:52,1.3,26.9,1013,6,5,8,13,95,2022-08-01 6:25,112,2022-08-01 15:25
476,2022-08-01 6:26,N,4,10,60:A4:23:C9:A0:4C,3,31.6,1006,34,51,37,83,81,2022-08-01 6:26,119,2022-08-01 15:26
477,2022-08-01 6:27,N,4,19,60:A4:23:D4:5D:84,3,34.7,1029,83,134,89,205,90,2022-08-01 6:27,117,2022-08-01 15:27
478,2022-08-01 6:28,N,4,13,60:A4:23:C9:A0:3E,3,33.7,1023,85,102,98,193,84,2022-08-01 6:28,118,2022-08-01 15:28
479,2022-08-01 6:30,N,4,14,60:A4:23:C9:A0:2F,3.1,34.1,1016,30,40,30,67,65,2022-08-01 6:30,118,2022-08-01 15:30
480,2022-08-01 6:30,N,4,11,60:A4:23:C9:A0:9B,3,33.9,1010,61,56,43,109,78,2022-08-01 6:30,119,2022-08-01 15:31
481,2022-08-01 6:32,N,4,15,60:A4:23:C9:A0:3B,3,33.2,1026,65,77,63,139,70,2022-08-01 6:32,118,2022-08-01 15:32
482,2022-08-01 6:32,V,3,001A,60:A4:23:7C:A5:F3,1.1,29.7,1014,22,14,47,60,91,2022-08-01 6:32,112,2022-08-01 15:32
483,2022-08-01 6:32,N,4,12,60:A4:23:C9:A0:4D,3,30,1022,62,90,66,146,77,2022-08-01 6:32,119,2022-08-01 15:32
484,2022-08-01 6:32,N,4,16,60:A4:23:D4:5D:A3,3.1,33,1006,75,91,69,157,89,2022-08-01 6:32,118,2022-08-01 15:32
485,2022-08-01 6:34,N,4,17,60:A4:23:D4:5D:C7,3.1,32.1,1009,46,66,59,117,75,2022-08-01 6:34,118,2022-08-01 15:34
486,2022-08-01 6:35,V,3,001C,60:A4:23:7F:49:30,1.3,31.4,1013,8,6,16,21,85,2022-08-01 6:35,83,2022-08-01 15:35
487,2022-08-01 6:35,N,4,18,60:A4:23:C9:A0:E3,3.1,34.8,1006,35,45,39,81,88,2022-08-01 6:35,118,2022-08-01 15:35
488,2022-08-01 6:36,N,4,10,60:A4:23:C9:A0:4C,3,31.7,1006,55,70,52,119,74,2022-08-01 6:36,120,2022-08-01 15:36
489,2022-08-01 6:37,N,4,19,60:A4:23:D4:5D:84,3,35.2,1029,85,106,85,185,63,2022-08-01 6:37,118,2022-08-01 15:37
490,2022-08-01 6:38,N,4,13,60:A4:23:C9:A0:3E,3,33.6,1023,66,82,64,143,72,2022-08-01 6:38,119,2022-08-01 15:38
491,2022-08-01 6:40,N,4,14,60:A4:23:C9:A0:2F,3.1,34.3,1016,7,6,8,15,70,2022-08-01 6:40,119,2022-08-01 15:40
492,2022-08-01 6:40,N,4,11,60:A4:23:C9:A0:9B,3,34,1010,46,37,27,74,77,2022-08-01 6:40,120,2022-08-01 15:41
493,2022-08-01 6:42,N,4,15,60:A4:23:C9:A0:3B,3,32.7,1026,58,83,56,132,78,2022-08-01 6:42,119,2022-08-01 15:42
494,2022-08-01 6:42,V,3,001A,60:A4:23:7C:A5:F3,1.1,29.8,1013,22,14,41,55,91,2022-08-01 6:42,113,2022-08-01 15:42
495,2022-08-01 6:42,N,4,12,60:A4:23:C9:A0:4D,3,30,1022,72,79,59,141,69,2022-08-01 6:42,120,2022-08-01 15:42
496,2022-08-01 6:42,N,4,16,60:A4:23:D4:5D:A3,3.1,33,1006,61,84,65,142,89,2022-08-01 6:42,119,2022-08-01 15:42
497,2022-08-01 6:44,N,4,17,60:A4:23:D4:5D:C7,3.1,32.1,1009,54,73,53,121,79,2022-08-01 6:44,119,2022-08-01 15:44
498,2022-08-01 6:45,N,4,18,60:A4:23:C9:A0:E3,3.1,35,1006,67,84,72,150,81,2022-08-01 6:45,119,2022-08-01 15:45
499,2022-08-01 6:46,N,4,10,60:A4:23:C9:A0:4C,3,32.1,1006,49,65,44,107,81,2022-08-01 6:46,121,2022-08-01 15:46
500,2022-08-01 6:47,N,4,19,60:A4:23:D4:5D:84,3,36.1,1029,69,82,59,143,77,2022-08-01 6:47,119,2022-08-01 15:47
501,2022-08-01 6:48,N,4,13,60:A4:23:C9:A0:3E,3,33.9,1023,66,75,60,136,72,2022-08-01 6:48,120,2022-08-01 15:48
502,2022-08-01 6:50,N,4,14,60:A4:23:C9:A0:2F,3.1,34.6,1016,57,70,63,127,67,2022-08-01 6:50,120,2022-08-01 15:50
503,2022-08-01 6:50,N,4,11,60:A4:23:C9:A0:9B,3,34.5,1010,63,68,68,133,80,2022-08-01 6:50,121,2022-08-01 15:51
504,2022-08-01 6:52,N,4,15,60:A4:23:C9:A0:3B,3,32.4,1026,24,31,26,54,71,2022-08-01 6:52,120,2022-08-01 15:52
505,2022-08-01 6:52,V,3,001A,60:A4:23:7C:A5:F3,1.1,29.9,1013,25,16,46,61,91,2022-08-01 6:52,114,2022-08-01 15:52
506,2022-08-01 6:52,N,4,12,60:A4:23:C9:A0:4D,3,30.2,1022,60,74,68,135,72,2022-08-01 6:52,121,2022-08-01 15:52
507,2022-08-01 6:52,N,4,16,60:A4:23:D4:5D:A3,3.1,33.5,1006,47,55,47,100,73,2022-08-01 6:52,120,2022-08-01 15:52
508,2022-08-01 6:54,N,4,17,60:A4:23:D4:5D:C7,3.1,32.1,1009,51,75,54,122,77,2022-08-01 6:54,120,2022-08-01 15:54
509,2022-08-01 6:55,V,3,001C,60:A4:23:7F:49:30,1.3,31.5,1013,8,6,15,20,85,2022-08-01 6:55,85,2022-08-01 15:55
510,2022-08-01 6:55,N,4,18,60:A4:23:C9:A0:E3,3.1,35,1006,46,64,50,109,80,2022-08-01 6:55,120,2022-08-01 15:55
511,2022-08-01 6:55,V,3,001D,60:A4:23:7F:3D:52,1.3,27.1,1013,6,5,7,12,92,2022-08-01 6:55,115,2022-08-01 15:55
512,2022-08-01 6:56,N,4,10,60:A4:23:C9:A0:4C,3,31.9,1006,46,62,42,102,77,2022-08-01 6:56,122,2022-08-01 15:56
513,2022-08-01 6:57,N,4,19,60:A4:23:D4:5D:84,3,35.9,1029,56,81,57,132,81,2022-08-01 6:57,120,2022-08-01 15:57
514,2022-08-01 6:58,N,4,13,60:A4:23:C9:A0:3E,3,34.2,1023,47,53,36,92,72,2022-08-01 6:58,121,2022-08-01 15:58
515,2022-08-01 7:00,N,4,14,60:A4:23:C9:A0:2F,3.1,34.2,1016,67,69,69,140,71,2022-08-01 7:00,121,2022-08-01 16:00
516,2022-08-01 7:00,N,4,11,60:A4:23:C9:A0:9B,3,34.2,1010,40,38,31,73,70,2022-08-01 7:00,122,2022-08-01 16:01
517,2022-08-01 7:02,N,4,15,60:A4:23:C9:A0:3B,3,32.5,1026,61,75,62,133,83,2022-08-01 7:02,121,2022-08-01 16:02
518,2022-08-01 7:02,N,4,12,60:A4:23:C9:A0:4D,3,30.1,1022,37,44,38,80,89,2022-08-01 7:02,122,2022-08-01 16:02
519,2022-08-01 7:02,N,4,16,60:A4:23:D4:5D:A3,3.1,33.5,1006,52,56,51,106,81,2022-08-01 7:02,121,2022-08-01 16:02
520,2022-08-01 7:04,N,4,17,60:A4:23:D4:5D:C7,3.1,31.7,1009,43,52,41,92,80,2022-08-01 7:04,121,2022-08-01 16:04
521,2022-08-01 7:05,V,3,001C,60:A4:23:7F:49:30,1.3,31.5,1013,7,6,15,20,87,2022-08-01 7:05,86,2022-08-01 16:05
522,2022-08-01 7:05,N,4,18,60:A4:23:C9:A0:E3,3.1,34.8,1006,50,72,52,118,79,2022-08-01 7:05,121,2022-08-01 16:05
523,2022-08-01 7:05,V,3,001D,60:A4:23:7F:3D:52,1.3,27,1013,6,5,8,13,94,2022-08-01 7:05,116,2022-08-01 16:05
524,2022-08-01 7:06,N,4,10,60:A4:23:C9:A0:4C,3,31.4,1006,48,74,42,113,84,2022-08-01 7:06,123,2022-08-01 16:06
525,2022-08-01 7:07,N,4,19,60:A4:23:D4:5D:84,3,35.8,1029,8,7,9,16,77,2022-08-01 7:07,121,2022-08-01 16:07
526,2022-08-01 7:08,N,4,13,60:A4:23:C9:A0:3E,3,34.3,1023,64,81,70,144,76,2022-08-01 7:08,122,2022-08-01 16:08
527,2022-08-01 7:10,N,4,14,60:A4:23:C9:A0:2F,3.1,34.1,1016,65,78,58,135,66,2022-08-01 7:10,122,2022-08-01 16:10
528,2022-08-01 7:10,N,4,11,60:A4:23:C9:A0:9B,3,33.8,1010,99,84,63,166,67,2022-08-01 7:10,123,2022-08-01 16:11
529,2022-08-01 7:12,N,4,15,60:A4:23:C9:A0:3B,3,32.5,1026,107,106,85,200,73,2022-08-01 7:12,122,2022-08-01 16:12
530,2022-08-01 7:12,V,3,001A,60:A4:23:7C:A5:F3,1.1,29.7,1013,23,16,45,60,94,2022-08-01 7:12,116,2022-08-01 16:12
531,2022-08-01 7:12,N,4,12,60:A4:23:C9:A0:4D,3,30.5,1022,18,24,19,41,77,2022-08-01 7:12,123,2022-08-01 16:12
532,2022-08-01 7:12,N,4,16,60:A4:23:D4:5D:A3,3.1,33.4,1006,49,62,52,111,79,2022-08-01 7:12,122,2022-08-01 16:12
533,2022-08-01 7:14,N,4,17,60:A4:23:D4:5D:C7,3.1,32.5,1009,10,15,12,25,84,2022-08-01 7:14,122,2022-08-01 16:14
534,2022-08-01 7:15,V,3,001C,60:A4:23:7F:49:30,1.3,31.4,1013,8,6,14,19,84,2022-08-01 7:15,87,2022-08-01 16:15
535,2022-08-01 7:15,N,4,18,60:A4:23:C9:A0:E3,3.1,34.7,1006,45,75,54,118,68,2022-08-01 7:15,122,2022-08-01 16:15
536,2022-08-01 7:16,N,4,10,60:A4:23:C9:A0:4C,3,31.6,1006,52,73,41,114,76,2022-08-01 7:16,124,2022-08-01 16:16
537,2022-08-01 7:17,N,4,19,60:A4:23:D4:5D:84,3,35.8,1029,7,8,9,17,92,2022-08-01 7:17,122,2022-08-01 16:17
538,2022-08-01 7:18,N,4,13,60:A4:23:C9:A0:3E,3,34.4,1023,46,48,43,91,74,2022-08-01 7:18,123,2022-08-01 16:18
539,2022-08-01 7:20,N,4,14,60:A4:23:C9:A0:2F,3.1,34.2,1016,68,86,55,142,75,2022-08-01 7:20,123,2022-08-01 16:20
540,2022-08-01 7:20,N,4,11,60:A4:23:C9:A0:9B,3,33.8,1010,50,58,49,105,66,2022-08-01 7:20,124,2022-08-01 16:21
541,2022-08-01 7:22,N,4,15,60:A4:23:C9:A0:3B,3,32.8,1026,66,62,53,123,66,2022-08-01 7:22,123,2022-08-01 16:22
542,2022-08-01 7:22,V,3,001A,60:A4:23:7C:A5:F3,1.1,29.8,1013,24,16,48,62,91,2022-08-01 7:22,117,2022-08-01 16:22
543,2022-08-01 7:22,N,4,12,60:A4:23:C9:A0:4D,3,30.8,1022,59,68,56,123,77,2022-08-01 7:22,124,2022-08-01 16:22
544,2022-08-01 7:22,N,4,16,60:A4:23:D4:5D:A3,3.1,33.7,1006,53,64,50,113,80,2022-08-01 7:22,123,2022-08-01 16:22
545,2022-08-01 7:24,N,4,17,60:A4:23:D4:5D:C7,3.1,33,1009,11,14,14,27,88,2022-08-01 7:24,123,2022-08-01 16:24
546,2022-08-01 7:25,V,3,001C,60:A4:23:7F:49:30,1.3,31.6,1013,8,6,15,20,86,2022-08-01 7:25,88,2022-08-01 16:25
547,2022-08-01 7:25,N,4,18,60:A4:23:C9:A0:E3,3.1,34.9,1006,48,57,49,104,77,2022-08-01 7:25,123,2022-08-01 16:25
548,2022-08-01 7:25,V,3,001D,60:A4:23:7F:3D:52,1.3,27.2,1013,6,4,8,13,92,2022-08-01 7:25,118,2022-08-01 16:25
549,2022-08-01 7:26,N,4,10,60:A4:23:C9:A0:4C,3,31.8,1006,58,70,50,120,80,2022-08-01 7:26,125,2022-08-01 16:26
550,2022-08-01 7:27,N,4,19,60:A4:23:D4:5D:84,3,35.4,1029,16,21,19,38,81,2022-08-01 7:27,123,2022-08-01 16:27
551,2022-08-01 7:28,N,4,13,60:A4:23:C9:A0:3E,3,34.6,1023,46,58,47,102,71,2022-08-01 7:28,124,2022-08-01 16:28
552,2022-08-01 7:30,N,4,14,60:A4:23:C9:A0:2F,3.1,34.2,1016,63,80,64,140,71,2022-08-01 7:30,124,2022-08-01 16:30
553,2022-08-01 7:30,N,4,11,60:A4:23:C9:A0:9B,3,33.9,1011,38,44,37,81,69,2022-08-01 7:30,125,2022-08-01 16:31
554,2022-08-01 7:32,N,4,15,60:A4:23:C9:A0:3B,3,32.9,1026,79,90,78,167,70,2022-08-01 7:32,124,2022-08-01 16:32
555,2022-08-01 7:32,V,3,001A,60:A4:23:7C:A5:F3,1.1,29.9,1013,22,16,45,60,92,2022-08-01 7:32,118,2022-08-01 16:32
556,2022-08-01 7:32,N,4,12,60:A4:23:C9:A0:4D,3,30.6,1022,72,91,78,160,70,2022-08-01 7:32,125,2022-08-01 16:32
557,2022-08-01 7:32,N,4,16,60:A4:23:D4:5D:A3,3.1,33.6,1006,35,40,38,76,90,2022-08-01 7:32,124,2022-08-01 16:32
558,2022-08-01 7:34,N,4,17,60:A4:23:D4:5D:C7,3.1,33.1,1009,11,17,12,28,69,2022-08-01 7:34,124,2022-08-01 16:34
559,2022-08-01 7:35,V,3,001C,60:A4:23:7F:49:30,1.3,31.5,1013,8,6,14,20,87,2022-08-01 7:35,89,2022-08-01 16:35
560,2022-08-01 7:35,N,4,18,60:A4:23:C9:A0:E3,3.1,35.7,1006,9,11,10,20,70,2022-08-01 7:35,124,2022-08-01 16:35
561,2022-08-01 7:35,V,3,001D,60:A4:23:7F:3D:52,1.3,27.1,1013,6,5,8,13,93,2022-08-01 7:35,119,2022-08-01 16:35
562,2022-08-01 7:36,N,4,10,60:A4:23:C9:A0:4C,3,31.9,1006,72,85,83,162,65,2022-08-01 7:36,126,2022-08-01 16:36
563,2022-08-01 7:37,N,4,19,60:A4:23:D4:5D:84,3,35.6,1029,9,11,11,21,76,2022-08-01 7:37,124,2022-08-01 16:37
564,2022-08-01 7:38,N,4,13,60:A4:23:C9:A0:3E,3,34.8,1023,54,67,53,116,71,2022-08-01 7:38,125,2022-08-01 16:38
565,2022-08-01 7:40,N,4,14,60:A4:23:C9:A0:2F,3.1,34.4,1016,81,88,75,162,75,2022-08-01 7:40,125,2022-08-01 16:40
566,2022-08-01 7:40,N,4,11,60:A4:23:C9:A0:9B,3,34.1,1011,119,96,68,187,60,2022-08-01 7:40,126,2022-08-01 16:41
567,2022-08-01 7:42,N,4,15,60:A4:23:C9:A0:3B,3,33.2,1026,23,30,21,49,81,2022-08-01 7:42,125,2022-08-01 16:42
568,2022-08-01 7:42,V,3,001A,60:A4:23:7C:A5:F3,1.1,29.9,1013,23,16,47,61,92,2022-08-01 7:42,119,2022-08-01 16:42
569,2022-08-01 7:42,N,4,12,60:A4:23:C9:A0:4D,3,30.5,1022,28,39,30,66,81,2022-08-01 7:42,126,2022-08-01 16:42
570,2022-08-01 7:42,N,4,16,60:A4:23:D4:5D:A3,3.1,33.7,1006,62,83,66,143,71,2022-08-01 7:42,125,2022-08-01 16:42
571,2022-08-01 7:44,N,4,17,60:A4:23:D4:5D:C7,3.1,32.7,1009,59,71,56,127,77,2022-08-01 7:44,125,2022-08-01 16:44
572,2022-08-01 7:45,V,3,001C,60:A4:23:7F:49:30,1.3,31.6,1013,7,6,15,21,87,2022-08-01 7:45,90,2022-08-01 16:45
573,2022-08-01 7:45,N,4,18,60:A4:23:C9:A0:E3,3.1,35.4,1006,40,60,45,98,72,2022-08-01 7:45,125,2022-08-01 16:45
574,2022-08-01 7:46,N,4,10,60:A4:23:C9:A0:4C,3,31.7,1006,70,85,71,153,88,2022-08-01 7:46,127,2022-08-01 16:46
575,2022-08-01 7:47,N,4,19,60:A4:23:D4:5D:84,3,35.7,1029,17,18,17,35,85,2022-08-01 7:47,125,2022-08-01 16:47
576,2022-08-01 7:48,N,4,13,60:A4:23:C9:A0:3E,3,34.5,1023,54,71,53,120,82,2022-08-01 7:48,126,2022-08-01 16:48
577,2022-08-01 7:50,N,4,14,60:A4:23:C9:A0:2F,3.1,34.4,1016,61,71,53,123,70,2022-08-01 7:50,126,2022-08-01 16:50
578,2022-08-01 7:50,N,4,11,60:A4:23:C9:A0:9B,3,33.6,1011,123,84,73,189,72,2022-08-01 7:50,127,2022-08-01 16:51
579,2022-08-01 7:52,N,4,15,60:A4:23:C9:A0:3B,3,33.4,1026,25,31,20,51,66,2022-08-01 7:52,126,2022-08-01 16:52
580,2022-08-01 7:52,V,3,001A,60:A4:23:7C:A5:F3,1.1,29.9,1013,22,16,49,62,91,2022-08-01 7:52,120,2022-08-01 16:52
581,2022-08-01 7:52,N,4,12,60:A4:23:C9:A0:4D,3,30.6,1022,21,29,22,49,70,2022-08-01 7:52,127,2022-08-01 16:52
582,2022-08-01 7:52,N,4,16,60:A4:23:D4:5D:A3,3.1,33.9,1006,29,41,28,66,82,2022-08-01 7:52,126,2022-08-01 16:52
583,2022-08-01 7:54,N,4,17,60:A4:23:D4:5D:C7,3.1,32.4,1009,57,81,52,130,70,2022-08-01 7:54,126,2022-08-01 16:54
584,2022-08-01 7:55,V,3,001C,60:A4:23:7F:49:30,1.3,31.6,1013,7,6,15,20,86,2022-08-01 7:55,91,2022-08-01 16:55
585,2022-08-01 7:55,N,4,18,60:A4:23:C9:A0:E3,3.1,35.2,1006,57,75,62,131,76,2022-08-01 7:55,126,2022-08-01 16:55
586,2022-08-01 7:55,V,3,001D,60:A4:23:7F:3D:52,1.4,27.1,1013,6,5,8,13,95,2022-08-01 7:55,121,2022-08-01 16:55
587,2022-08-01 7:56,N,4,10,60:A4:23:C9:A0:4C,3,31.8,1006,32,40,29,70,80,2022-08-01 7:56,128,2022-08-01 16:56
588,2022-08-01 7:57,N,4,19,60:A4:23:D4:5D:84,3,35.3,1029,29,32,23,57,87,2022-08-01 7:57,126,2022-08-01 16:57
589,2022-08-01 7:58,N,4,13,60:A4:23:C9:A0:3E,3,34.5,1023,20,19,15,36,79,2022-08-01 7:58,127,2022-08-01 16:58
590,2022-08-01 8:00,N,4,14,60:A4:23:C9:A0:2F,3.1,34.6,1016,34,43,33,73,69,2022-08-01 8:00,127,2022-08-01 17:00
591,2022-08-01 8:00,N,4,11,60:A4:23:C9:A0:9B,3,33.4,1011,78,62,47,125,75,2022-08-01 8:00,128,2022-08-01 17:01
592,2022-08-01 8:02,N,4,15,60:A4:23:C9:A0:3B,3,33.1,1026,26,35,30,61,71,2022-08-01 8:02,127,2022-08-01 17:02
593,2022-08-01 8:02,V,3,001A,60:A4:23:7C:A5:F3,1.1,29.9,1013,21,15,42,56,88,2022-08-01 8:02,121,2022-08-01 17:02
594,2022-08-01 8:02,N,4,12,60:A4:23:C9:A0:4D,3,30.3,1022,70,83,64,144,76,2022-08-01 8:02,128,2022-08-01 17:02
595,2022-08-01 8:02,N,4,16,60:A4:23:D4:5D:A3,3.1,34.3,1006,13,14,14,28,88,2022-08-01 8:02,127,2022-08-01 17:02
596,2022-08-01 8:04,N,4,17,60:A4:23:D4:5D:C7,3.1,32.1,1009,62,88,67,147,77,2022-08-01 8:04,127,2022-08-01 17:04
597,2022-08-01 8:05,V,3,001C,60:A4:23:7F:49:30,1.3,31.7,1013,7,6,14,19,88,2022-08-01 8:05,92,2022-08-01 17:05
598,2022-08-01 8:05,N,4,18,60:A4:23:C9:A0:E3,3.1,35.1,1006,33,57,34,85,75,2022-08-01 8:05,127,2022-08-01 17:05
599,2022-08-01 8:05,V,3,001D,60:A4:23:7F:3D:52,1.4,27.2,1013,6,5,8,13,94,2022-08-01 8:05,122,2022-08-01 17:05
600,2022-08-01 8:06,N,4,10,60:A4:23:C9:A0:4C,3,32.1,1006,20,28,20,47,70,2022-08-01 8:06,129,2022-08-01 17:06
601,2022-08-01 8:07,N,4,19,60:A4:23:D4:5D:84,3,35.4,1029,53,75,53,120,67,2022-08-01 8:07,127,2022-08-01 17:07
602,2022-08-01 8:08,N,4,13,60:A4:23:C9:A0:3E,3,34.6,1023,44,64,39,99,80,2022-08-01 8:08,128,2022-08-01 17:08
603,2022-08-01 8:10,N,4,14,60:A4:23:C9:A0:2F,3.1,34.3,1016,64,82,58,137,67,2022-08-01 8:10,128,2022-08-01 17:10
604,2022-08-01 8:10,N,4,11,60:A4:23:C9:A0:9B,3,34,1011,37,38,25,68,69,2022-08-01 8:10,129,2022-08-01 17:11
605,2022-08-01 8:11,N,4,15,60:A4:23:C9:A0:3B,3,32.6,1026,71,78,69,146,79,2022-08-01 8:11,128,2022-08-01 17:12
606,2022-08-01 8:12,V,3,001A,60:A4:23:7C:A5:F3,1.1,30.1,1013,21,15,39,54,91,2022-08-01 8:12,122,2022-08-01 17:12
607,2022-08-01 8:12,N,4,12,60:A4:23:C9:A0:4D,3,30.3,1022,75,90,80,165,82,2022-08-01 8:12,129,2022-08-01 17:12
608,2022-08-01 8:12,N,4,16,60:A4:23:D4:5D:A3,3.1,34.3,1006,15,22,18,38,72,2022-08-01 8:12,128,2022-08-01 17:12
609,2022-08-01 8:14,N,4,17,60:A4:23:D4:5D:C7,3.1,31.9,1009,44,57,46,99,72,2022-08-01 8:14,128,2022-08-01 17:14
610,2022-08-01 8:15,V,3,001C,60:A4:23:7F:49:30,1.3,31.7,1013,7,5,15,20,87,2022-08-01 8:15,93,2022-08-01 17:15
611,2022-08-01 8:15,N,4,18,60:A4:23:C9:A0:E3,3.1,35.2,1006,8,12,9,21,75,2022-08-01 8:15,128,2022-08-01 17:15
612,2022-08-01 8:15,V,3,001D,60:A4:23:7F:3D:52,1.3,27.3,1013,6,5,8,13,95,2022-08-01 8:15,123,2022-08-01 17:15
613,2022-08-01 8:16,N,4,10,60:A4:23:C9:A0:4C,3,31.6,1006,59,76,52,126,67,2022-08-01 8:16,130,2022-08-01 17:16
614,2022-08-01 8:17,N,4,19,60:A4:23:D4:5D:84,3,35,1029,83,123,84,196,78,2022-08-01 8:17,128,2022-08-01 17:17
615,2022-08-01 8:18,N,4,13,60:A4:23:C9:A0:3E,3,34.2,1023,65,88,58,142,91,2022-08-01 8:18,129,2022-08-01 17:18
616,2022-08-01 8:20,N,4,14,60:A4:23:C9:A0:2F,3.1,33.9,1016,72,79,61,143,80,2022-08-01 8:20,129,2022-08-01 17:20
617,2022-08-01 8:20,N,4,11,60:A4:23:C9:A0:9B,3,33.9,1011,61,62,53,119,62,2022-08-01 8:20,130,2022-08-01 17:21
618,2022-08-01 8:21,N,4,15,60:A4:23:C9:A0:3B,3,32.4,1026,46,53,35,91,71,2022-08-01 8:21,129,2022-08-01 17:22
619,2022-08-01 8:22,V,3,001A,60:A4:23:7C:A5:F3,1.1,30,1013,23,17,45,61,90,2022-08-01 8:22,123,2022-08-01 17:22
620,2022-08-01 8:22,N,4,12,60:A4:23:C9:A0:4D,3,30.3,1022,39,44,34,80,73,2022-08-01 8:22,130,2022-08-01 17:22
621,2022-08-01 8:22,N,4,16,60:A4:23:D4:5D:A3,3.1,33.7,1006,36,49,37,82,90,2022-08-01 8:22,129,2022-08-01 17:22
622,2022-08-01 8:24,N,4,17,60:A4:23:D4:5D:C7,3.1,31.8,1009,52,74,52,121,64,2022-08-01 8:24,129,2022-08-01 17:24
623,2022-08-01 8:25,V,3,001C,60:A4:23:7F:49:30,1.3,31.7,1013,7,6,15,21,88,2022-08-01 8:25,94,2022-08-01 17:25
624,2022-08-01 8:25,N,4,18,60:A4:23:C9:A0:E3,3.1,35,1006,41,49,43,90,70,2022-08-01 8:25,129,2022-08-01 17:25
625,2022-08-01 8:25,V,3,001D,60:A4:23:7F:3D:52,1.4,27.3,1013,6,5,8,13,92,2022-08-01 8:25,124,2022-08-01 17:25
626,2022-08-01 8:26,N,4,10,60:A4:23:C9:A0:4C,3,31.1,1006,73,105,92,184,76,2022-08-01 8:26,131,2022-08-01 17:26
627,2022-08-01 8:27,N,4,19,60:A4:23:D4:5D:84,3,35.1,1029,92,120,95,207,81,2022-08-01 8:27,129,2022-08-01 17:27
628,2022-08-01 8:28,N,4,13,60:A4:23:C9:A0:3E,3,34.2,1023,57,74,53,124,78,2022-08-01 8:28,130,2022-08-01 17:28
629,2022-08-01 8:30,N,4,14,60:A4:23:C9:A0:2F,3.1,33.8,1016,63,75,62,135,80,2022-08-01 8:30,130,2022-08-01 17:30
630,2022-08-01 8:30,N,4,11,60:A4:23:C9:A0:9B,3,33.8,1011,73,56,47,119,77,2022-08-01 8:30,131,2022-08-01 17:31
631,2022-08-01 8:31,N,4,15,60:A4:23:C9:A0:3B,3,32.4,1026,26,34,24,57,63,2022-08-01 8:31,130,2022-08-01 17:32
632,2022-08-01 8:32,V,3,001A,60:A4:23:7C:A5:F3,1.1,30,1013,22,16,50,64,90,2022-08-01 8:32,124,2022-08-01 17:32
633,2022-08-01 8:32,N,4,12,60:A4:23:C9:A0:4D,3,30.1,1022,21,33,23,52,67,2022-08-01 8:32,131,2022-08-01 17:32
634,2022-08-01 8:32,N,4,16,60:A4:23:D4:5D:A3,3.1,33.4,1006,57,77,55,129,88,2022-08-01 8:32,130,2022-08-01 17:32
635,2022-08-01 8:34,N,4,17,60:A4:23:D4:5D:C7,3.1,31.8,1009,31,41,32,71,77,2022-08-01 8:34,130,2022-08-01 17:34
636,2022-08-01 8:35,V,3,001C,60:A4:23:7F:49:30,1.3,31.7,1013,8,5,15,20,86,2022-08-01 8:35,95,2022-08-01 17:35
637,2022-08-01 8:35,N,4,18,60:A4:23:C9:A0:E3,3.1,34.9,1006,11,18,12,28,69,2022-08-01 8:35,130,2022-08-01 17:35
638,2022-08-01 8:35,V,3,001D,60:A4:23:7F:3D:52,1.4,27.3,1013,6,5,8,13,91,2022-08-01 8:35,125,2022-08-01 17:35
639,2022-08-01 8:36,N,4,10,60:A4:23:C9:A0:4C,3,31.4,1006,46,65,42,104,77,2022-08-01 8:36,132,2022-08-01 17:36
640,2022-08-01 8:37,N,4,19,60:A4:23:D4:5D:84,3,35.4,1029,54,83,55,128,77,2022-08-01 8:37,130,2022-08-01 17:37
641,2022-08-01 8:38,N,4,13,60:A4:23:C9:A0:3E,3,34.4,1023,59,57,48,110,76,2022-08-01 8:38,131,2022-08-01 17:38
642,2022-08-01 8:40,N,4,14,60:A4:23:C9:A0:2F,3.1,33.6,1016,51,67,49,111,71,2022-08-01 8:40,131,2022-08-01 17:40
643,2022-08-01 8:40,N,4,11,60:A4:23:C9:A0:9B,3,33.8,1011,28,29,25,56,79,2022-08-01 8:40,132,2022-08-01 17:41
644,2022-08-01 8:41,N,4,15,60:A4:23:C9:A0:3B,3,32.3,1026,48,64,46,106,86,2022-08-01 8:41,131,2022-08-01 17:42
645,2022-08-01 8:42,N,4,12,60:A4:23:C9:A0:4D,3,29.6,1022,23,31,27,55,71,2022-08-01 8:42,132,2022-08-01 17:42
646,2022-08-01 8:42,N,4,16,60:A4:23:D4:5D:A3,3.1,33.4,1006,51,65,51,112,66,2022-08-01 8:42,131,2022-08-01 17:42
647,2022-08-01 8:44,N,4,17,60:A4:23:D4:5D:C7,3.1,32.1,1009,27,39,24,62,76,2022-08-01 8:44,131,2022-08-01 17:44
648,2022-08-01 8:45,V,3,001C,60:A4:23:7F:49:30,1.3,31.5,1013,7,6,15,20,87,2022-08-01 8:45,96,2022-08-01 17:45
649,2022-08-01 8:45,N,4,18,60:A4:23:C9:A0:E3,3.1,34.8,1006,20,27,22,46,76,2022-08-01 8:45,131,2022-08-01 17:45
650,2022-08-01 8:45,V,3,001D,60:A4:23:7F:3D:52,1.4,27,1013,6,5,8,12,90,2022-08-01 8:45,126,2022-08-01 17:45
651,2022-08-01 8:46,N,4,10,60:A4:23:C9:A0:4C,3,31.5,1006,48,53,43,97,81,2022-08-01 8:46,133,2022-08-01 17:46
652,2022-08-01 8:47,N,4,19,60:A4:23:D4:5D:84,3,35.4,1029,81,119,86,193,72,2022-08-01 8:47,131,2022-08-01 17:47
653,2022-08-01 8:48,N,4,13,60:A4:23:C9:A0:3E,3,34,1023,32,34,26,62,71,2022-08-01 8:48,132,2022-08-01 17:48
654,2022-08-01 8:50,N,4,14,60:A4:23:C9:A0:2F,3.1,33.7,1016,72,81,62,145,70,2022-08-01 8:50,132,2022-08-01 17:50
655,2022-08-01 8:50,N,4,11,60:A4:23:C9:A0:9B,3,33.6,1011,36,46,34,78,65,2022-08-01 8:50,133,2022-08-01 17:51
656,2022-08-01 8:51,N,4,15,60:A4:23:C9:A0:3B,3,32.2,1026,38,45,39,83,83,2022-08-01 8:51,132,2022-08-01 17:52
657,2022-08-01 8:52,N,4,12,60:A4:23:C9:A0:4D,3,29.7,1022,15,17,15,32,67,2022-08-01 8:52,133,2022-08-01 17:52
658,2022-08-01 8:52,N,4,16,60:A4:23:D4:5D:A3,3.1,32.7,1006,63,70,57,127,69,2022-08-01 8:52,132,2022-08-01 17:52
659,2022-08-01 8:54,N,4,17,60:A4:23:D4:5D:C7,3.1,31.3,1009,37,55,39,90,74,2022-08-01 8:54,132,2022-08-01 17:54
660,2022-08-01 8:55,V,3,001C,60:A4:23:7F:49:30,1.3,31.3,1013,4,4,6,10,86,2022-08-01 8:55,97,2022-08-01 17:55
661,2022-08-01 8:55,N,4,18,60:A4:23:C9:A0:E3,3.1,34.9,1006,13,18,14,31,83,2022-08-01 8:55,132,2022-08-01 17:55
662,2022-08-01 8:55,V,3,001D,60:A4:23:7F:3D:52,1.3,26.9,1013,4,4,6,10,94,2022-08-01 8:55,127,2022-08-01 17:55
663,2022-08-01 8:56,N,4,10,60:A4:23:C9:A0:4C,3,31.2,1006,47,67,40,104,75,2022-08-01 8:56,134,2022-08-01 17:56
664,2022-08-01 8:57,N,4,19,60:A4:23:D4:5D:84,3,35.1,1029,71,92,63,152,72,2022-08-01 8:57,132,2022-08-01 17:57
665,2022-08-01 8:58,N,4,13,60:A4:23:C9:A0:3E,3,33.4,1023,26,34,22,56,88,2022-08-01 8:58,133,2022-08-01 17:58
666,2022-08-01 9:00,N,4,14,60:A4:23:C9:A0:2F,3.1,33.7,1016,46,56,42,97,73,2022-08-01 9:00,133,2022-08-01 18:00
667,2022-08-01 9:00,N,4,11,60:A4:23:C9:A0:9B,3,33.4,1011,39,38,34,75,74,2022-08-01 9:00,134,2022-08-01 18:01
668,2022-08-01 9:02,N,4,15,60:A4:23:C9:A0:3B,3,32.1,1026,47,54,45,98,86,2022-08-01 9:02,133,2022-08-01 18:02
669,2022-08-01 9:02,V,3,001A,60:A4:23:7C:A5:F3,1.1,29.5,1013,4,4,6,10,88,2022-08-01 9:02,127,2022-08-01 18:02
670,2022-08-01 9:02,N,4,12,60:A4:23:C9:A0:4D,3,29.5,1022,71,77,73,149,79,2022-08-01 9:02,134,2022-08-01 18:02
671,2022-08-01 9:02,N,4,16,60:A4:23:D4:5D:A3,3.1,32.5,1006,44,56,45,97,75,2022-08-01 9:02,133,2022-08-01 18:02
672,2022-08-01 9:04,N,4,17,60:A4:23:D4:5D:C7,3.1,31.2,1009,60,66,57,123,83,2022-08-01 9:04,133,2022-08-01 18:04
673,2022-08-01 9:05,N,4,18,60:A4:23:C9:A0:E3,3.1,34.8,1006,43,56,48,100,83,2022-08-01 9:05,133,2022-08-01 18:05
674,2022-08-01 9:05,V,3,001D,60:A4:23:7F:3D:52,1.4,26.8,1013,4,4,5,10,96,2022-08-01 9:05,128,2022-08-01 18:05
675,2022-08-01 9:06,N,4,10,60:A4:23:C9:A0:4C,3,30.8,1006,47,71,39,108,73,2022-08-01 9:06,135,2022-08-01 18:06
676,2022-08-01 9:07,N,4,19,60:A4:23:D4:5D:84,3,35,1029,67,89,71,151,67,2022-08-01 9:07,133,2022-08-01 18:07
677,2022-08-01 9:08,N,4,13,60:A4:23:C9:A0:3E,3,33.1,1023,20,25,21,44,80,2022-08-01 9:08,134,2022-08-01 18:08
678,2022-08-01 9:10,N,4,14,60:A4:23:C9:A0:2F,3.1,33.3,1016,56,64,57,118,66,2022-08-01 9:10,134,2022-08-01 18:10
679,2022-08-01 9:10,N,4,11,60:A4:23:C9:A0:9B,3,33.6,1011,27,30,22,54,73,2022-08-01 9:10,135,2022-08-01 18:11
680,2022-08-01 9:11,N,4,15,60:A4:23:C9:A0:3B,3,31.8,1026,69,72,55,131,77,2022-08-01 9:11,134,2022-08-01 18:12
681,2022-08-01 9:12,V,3,001A,60:A4:23:7C:A5:F3,1.1,29.5,1013,4,4,6,10,89,2022-08-01 9:12,128,2022-08-01 18:12
682,2022-08-01 9:12,N,4,12,60:A4:23:C9:A0:4D,3,29.3,1022,53,78,62,130,74,2022-08-01 9:12,135,2022-08-01 18:12
683,2022-08-01 9:12,N,4,16,60:A4:23:D4:5D:A3,3.1,32.3,1006,54,66,51,114,76,2022-08-01 9:12,134,2022-08-01 18:12
684,2022-08-01 9:14,N,4,17,60:A4:23:D4:5D:C7,3.1,31.8,1009,48,63,49,109,84,2022-08-01 9:14,134,2022-08-01 18:14
685,2022-08-01 9:15,V,3,001C,60:A4:23:7F:49:30,1.3,31.2,1013,4,4,5,10,87,2022-08-01 9:15,99,2022-08-01 18:15
686,2022-08-01 9:15,N,4,18,60:A4:23:C9:A0:E3,3.1,34.7,1006,36,48,40,83,81,2022-08-01 9:15,134,2022-08-01 18:15
687,2022-08-01 9:15,V,3,001D,60:A4:23:7F:3D:52,1.3,26.7,1013,4,4,5,10,92,2022-08-01 9:15,129,2022-08-01 18:15
688,2022-08-01 9:16,N,4,10,60:A4:23:C9:A0:4C,3,30.5,1006,49,65,51,112,78,2022-08-01 9:16,136,2022-08-01 18:16
689,2022-08-01 9:17,N,4,19,60:A4:23:D4:5D:84,3,34.8,1029,57,91,60,141,75,2022-08-01 9:17,134,2022-08-01 18:17
690,2022-08-01 9:18,N,4,13,60:A4:23:C9:A0:3E,3,32.6,1023,35,48,30,77,80,2022-08-01 9:18,135,2022-08-01 18:18
691,2022-08-01 9:20,N,4,14,60:A4:23:C9:A0:2F,3.1,33.3,1016,51,60,46,106,79,2022-08-01 9:20,135,2022-08-01 18:20
692,2022-08-01 9:20,N,4,11,60:A4:23:C9:A0:9B,3,33.4,1011,42,48,34,84,72,2022-08-01 9:20,136,2022-08-01 18:21
693,2022-08-01 9:21,N,4,15,60:A4:23:C9:A0:3B,3,31.9,1026,66,68,65,133,75,2022-08-01 9:21,135,2022-08-01 18:22
694,2022-08-01 9:22,V,3,001A,60:A4:23:7C:A5:F3,1.1,29.4,1013,4,4,6,10,92,2022-08-01 9:22,129,2022-08-01 18:22
695,2022-08-01 9:22,N,4,12,60:A4:23:C9:A0:4D,3,29,1022,26,37,27,62,73,2022-08-01 9:22,136,2022-08-01 18:22
696,2022-08-01 9:22,N,4,16,60:A4:23:D4:5D:A3,3.1,32.4,1006,39,56,46,95,69,2022-08-01 9:22,135,2022-08-01 18:22
697,2022-08-01 9:24,N,4,17,60:A4:23:D4:5D:C7,3.1,31.7,1009,38,52,35,85,78,2022-08-01 9:24,135,2022-08-01 18:24
698,2022-08-01 9:25,V,3,001C,60:A4:23:7F:49:30,1.3,31.1,1013,4,4,6,10,88,2022-08-01 9:25,100,2022-08-01 18:25
699,2022-08-01 9:25,N,4,18,60:A4:23:C9:A0:E3,3.1,34.8,1006,38,62,38,94,71,2022-08-01 9:25,135,2022-08-01 18:25
700,2022-08-01 9:25,V,3,001D,60:A4:23:7F:3D:52,1.3,26.7,1013,5,4,5,10,91,2022-08-01 9:25,130,2022-08-01 18:25
701,2022-08-01 9:26,N,4,10,60:A4:23:C9:A0:4C,3,30.5,1006,36,51,36,84,82,2022-08-01 9:26,137,2022-08-01 18:26
702,2022-08-01 9:27,N,4,19,60:A4:23:D4:5D:84,3,34.6,1029,51,69,48,113,69,2022-08-01 9:27,135,2022-08-01 18:27
703,2022-08-01 9:28,N,4,13,60:A4:23:C9:A0:3E,3,33.3,1023,40,49,41,87,68,2022-08-01 9:28,136,2022-08-01 18:28
704,2022-08-01 9:30,N,4,14,60:A4:23:C9:A0:2F,3.1,33.5,1016,46,58,46,101,67,2022-08-01 9:30,136,2022-08-01 18:30
705,2022-08-01 9:30,N,4,11,60:A4:23:C9:A0:9B,3,33.4,1011,36,43,33,77,70,2022-08-01 9:30,137,2022-08-01 18:31
706,2022-08-01 9:32,N,4,15,60:A4:23:C9:A0:3B,3,32.3,1026,26,32,21,53,71,2022-08-01 9:32,136,2022-08-01 18:32
707,2022-08-01 9:32,V,3,001A,60:A4:23:7C:A5:F3,1.1,29.4,1013,4,4,6,10,90,2022-08-01 9:32,130,2022-08-01 18:32
708,2022-08-01 9:32,N,4,12,60:A4:23:C9:A0:4D,3,29,1022,19,23,22,43,67,2022-08-01 9:32,137,2022-08-01 18:32
709,2022-08-01 9:32,N,4,16,60:A4:23:D4:5D:A3,3.1,32.6,1006,89,99,110,200,78,2022-08-01 9:32,136,2022-08-01 18:32
710,2022-08-01 9:34,N,4,17,60:A4:23:D4:5D:C7,3.1,31.7,1009,53,62,47,111,81,2022-08-01 9:34,136,2022-08-01 18:34
711,2022-08-01 9:35,V,3,001C,60:A4:23:7F:49:30,1.3,31.1,1013,4,4,6,10,88,2022-08-01 9:35,101,2022-08-01 18:35
712,2022-08-01 9:35,N,4,18,60:A4:23:C9:A0:E3,3.1,33.9,1006,51,78,53,123,71,2022-08-01 9:35,136,2022-08-01 18:35
713,2022-08-01 9:35,V,3,001D,60:A4:23:7F:3D:52,1.3,26.6,1013,5,4,6,10,94,2022-08-01 9:35,131,2022-08-01 18:35
714,2022-08-01 9:36,N,4,10,60:A4:23:C9:A0:4C,3,30.5,1006,30,39,29,66,88,2022-08-01 9:36,138,2022-08-01 18:36
715,2022-08-01 9:37,N,4,19,60:A4:23:D4:5D:84,3,34.4,1029,73,93,75,163,88,2022-08-01 9:37,136,2022-08-01 18:37
716,2022-08-01 9:38,N,4,13,60:A4:23:C9:A0:3E,3,33.1,1023,57,62,48,112,71,2022-08-01 9:38,137,2022-08-01 18:38
717,2022-08-01 9:40,N,4,14,60:A4:23:C9:A0:2F,3.1,33.4,1016,56,63,46,113,71,2022-08-01 9:40,137,2022-08-01 18:40
718,2022-08-01 9:40,N,4,11,60:A4:23:C9:A0:9B,3,33.1,1011,56,44,40,94,77,2022-08-01 9:40,138,2022-08-01 18:41
719,2022-08-01 9:41,N,4,15,60:A4:23:C9:A0:3B,3,32.3,1026,14,19,14,32,85,2022-08-01 9:41,137,2022-08-01 18:42
720,2022-08-01 9:42,V,3,001A,60:A4:23:7C:A5:F3,1.1,29.3,1013,4,4,6,10,88,2022-08-01 9:42,131,2022-08-01 18:42
721,2022-08-01 9:42,N,4,12,60:A4:23:C9:A0:4D,3,29.4,1022,14,19,15,32,65,2022-08-01 9:42,138,2022-08-01 18:42
722,2022-08-01 9:42,N,4,16,60:A4:23:D4:5D:A3,3.1,32.4,1006,39,53,44,92,73,2022-08-01 9:42,137,2022-08-01 18:42
723,2022-08-01 9:44,N,4,17,60:A4:23:D4:5D:C7,3.1,31.9,1009,53,60,54,112,76,2022-08-01 9:44,137,2022-08-01 18:44
724,2022-08-01 9:45,V,3,001C,60:A4:23:7F:49:30,1.3,31.1,1013,4,4,5,10,89,2022-08-01 9:45,102,2022-08-01 18:45
725,2022-08-01 9:45,N,4,18,60:A4:23:C9:A0:E3,3.1,33.8,1006,51,67,48,113,72,2022-08-01 9:45,137,2022-08-01 18:45
726,2022-08-01 9:45,V,3,001D,60:A4:23:7F:3D:52,1.3,26.6,1013,5,4,6,10,93,2022-08-01 9:45,132,2022-08-01 18:45
727,2022-08-01 9:46,N,4,10,60:A4:23:C9:A0:4C,3,30.3,1006,61,81,52,129,83,2022-08-01 9:46,139,2022-08-01 18:46
728,2022-08-01 9:47,N,4,19,60:A4:23:D4:5D:84,3,34.6,1029,65,94,67,151,80,2022-08-01 9:47,137,2022-08-01 18:47
729,2022-08-01 9:48,N,4,13,60:A4:23:C9:A0:3E,3,32.8,1023,66,76,67,140,76,2022-08-01 9:48,138,2022-08-01 18:48
730,2022-08-01 9:50,N,4,14,60:A4:23:C9:A0:2F,3.1,33,1016,65,77,64,138,71,2022-08-01 9:50,138,2022-08-01 18:50
731,2022-08-01 9:50,N,4,11,60:A4:23:C9:A0:9B,3,33.2,1011,10,13,11,23,85,2022-08-01 9:50,139,2022-08-01 18:51
732,2022-08-01 9:51,N,4,15,60:A4:23:C9:A0:3B,3,32,1026,45,54,46,99,73,2022-08-01 9:51,138,2022-08-01 18:52
733,2022-08-01 9:52,V,3,001A,60:A4:23:7C:A5:F3,1.1,29.2,1013,4,4,6,10,89,2022-08-01 9:52,132,2022-08-01 18:52
734,2022-08-01 9:52,N,4,12,60:A4:23:C9:A0:4D,3,29,1022,84,105,92,188,74,2022-08-01 9:52,139,2022-08-01 18:52
735,2022-08-01 9:52,N,4,16,60:A4:23:D4:5D:A3,3.1,32.9,1006,13,16,14,29,78,2022-08-01 9:52,138,2022-08-01 18:52
736,2022-08-01 9:54,N,4,17,60:A4:23:D4:5D:C7,3.1,31.3,1009,61,62,56,120,79,2022-08-01 9:54,138,2022-08-01 18:54
737,2022-08-01 9:55,V,3,001C,60:A4:23:7F:49:30,1.3,30.9,1013,4,4,5,10,88,2022-08-01 9:55,103,2022-08-01 18:55
738,2022-08-01 9:55,N,4,18,60:A4:23:C9:A0:E3,3.1,33.8,1006,16,20,15,34,75,2022-08-01 9:55,138,2022-08-01 18:55
739,2022-08-01 9:55,V,3,001D,60:A4:23:7F:3D:52,1.3,26.5,1013,5,4,6,10,91,2022-08-01 9:55,133,2022-08-01 18:55
740,2022-08-01 9:56,N,4,10,60:A4:23:C9:A0:4C,3,30.1,1006,51,67,47,112,82,2022-08-01 9:56,140,2022-08-01 18:56
741,2022-08-01 9:57,N,4,19,60:A4:23:D4:5D:84,3,34.2,1029,43,62,38,99,74,2022-08-01 9:57,138,2022-08-01 18:57
742,2022-08-01 9:58,N,4,13,60:A4:23:C9:A0:3E,3,33,1023,52,74,48,119,78,2022-08-01 9:58,139,2022-08-01 18:58
743,2022-08-01 10:00,N,4,14,60:A4:23:C9:A0:2F,3.1,32.8,1016,58,82,60,134,82,2022-08-01 10:00,139,2022-08-01 19:00
744,2022-08-01 10:00,N,4,11,60:A4:23:C9:A0:9B,3,33.4,1011,14,15,14,29,75,2022-08-01 10:00,140,2022-08-01 19:01
745,2022-08-01 10:01,N,4,15,60:A4:23:C9:A0:3B,3,31.3,1026,40,54,39,90,68,2022-08-01 10:01,139,2022-08-01 19:02
746,2022-08-01 10:02,V,3,001A,60:A4:23:7C:A5:F3,1.1,29.1,1013,4,4,6,10,89,2022-08-01 10:02,133,2022-08-01 19:02
747,2022-08-01 10:02,N,4,12,60:A4:23:C9:A0:4D,3,28.9,1022,36,44,34,76,67,2022-08-01 10:02,140,2022-08-01 19:02
748,2022-08-01 10:02,N,4,16,60:A4:23:D4:5D:A3,3.1,33.5,1006,16,18,19,36,74,2022-08-01 10:02,139,2022-08-01 19:02
749,2022-08-01 10:04,N,4,17,60:A4:23:D4:5D:C7,3.1,30.4,1009,71,82,80,157,72,2022-08-01 10:04,139,2022-08-01 19:04
750,2022-08-01 10:05,V,3,001C,60:A4:23:7F:49:30,1.3,30.8,1013,4,4,5,10,88,2022-08-01 10:05,104,2022-08-01 19:05
751,2022-08-01 10:05,N,4,18,60:A4:23:C9:A0:E3,3.1,32.7,1006,23,30,20,50,73,2022-08-01 10:05,139,2022-08-01 19:05
752,2022-08-01 10:05,V,3,001D,60:A4:23:7F:3D:52,1.3,26.4,1013,5,4,6,11,93,2022-08-01 10:05,134,2022-08-01 19:05
753,2022-08-01 10:06,N,4,10,60:A4:23:C9:A0:4C,3,30.6,1006,15,22,16,36,82,2022-08-01 10:06,141,2022-08-01 19:06
754,2022-08-01 10:07,N,4,19,60:A4:23:D4:5D:84,3,34.3,1029,57,88,60,139,71,2022-08-01 10:07,139,2022-08-01 19:07
755,2022-08-01 10:08,N,4,13,60:A4:23:C9:A0:3E,3,32.8,1023,63,75,57,132,72,2022-08-01 10:08,140,2022-08-01 19:08
756,2022-08-01 10:10,N,4,14,60:A4:23:C9:A0:2F,3.1,33,1016,34,36,32,69,71,2022-08-01 10:10,140,2022-08-01 19:10
757,2022-08-01 10:10,N,4,11,60:A4:23:C9:A0:9B,3,33.5,1011,19,17,15,34,68,2022-08-01 10:10,141,2022-08-01 19:11
758,2022-08-01 10:11,N,4,15,60:A4:23:C9:A0:3B,3,31.6,1026,40,49,41,87,80,2022-08-01 10:11,140,2022-08-01 19:12
759,2022-08-01 10:12,V,3,001A,60:A4:23:7C:A5:F3,1.1,28.8,1013,4,5,6,10,90,2022-08-01 10:12,134,2022-08-01 19:12
760,2022-08-01 10:12,N,4,12,60:A4:23:C9:A0:4D,3,28.8,1022,53,68,53,119,72,2022-08-01 10:12,141,2022-08-01 19:12
761,2022-08-01 10:12,N,4,16,60:A4:23:D4:5D:A3,3.1,32.6,1006,37,47,38,83,75,2022-08-01 10:12,140,2022-08-01 19:12
762,2022-08-01 10:14,V,3,001E,60:A4:23:7F:3D:60,1.3,30,1013,4,4,5,10,98,2022-08-01 10:14,135,2022-08-01 19:14
763,2022-08-01 10:14,N,4,17,60:A4:23:D4:5D:C7,3.1,29.8,1009,49,65,54,114,77,2022-08-01 10:14,140,2022-08-01 19:14
764,2022-08-01 10:15,V,3,001C,60:A4:23:7F:49:30,1.3,30.7,1013,4,4,6,10,92,2022-08-01 10:15,105,2022-08-01 19:15
765,2022-08-01 10:15,N,4,18,60:A4:23:C9:A0:E3,3.1,32.5,1006,50,71,58,120,75,2022-08-01 10:15,140,2022-08-01 19:15
766,2022-08-01 10:15,V,3,001D,60:A4:23:7F:3D:52,1.3,26.2,1013,4,4,6,10,93,2022-08-01 10:15,135,2022-08-01 19:15
767,2022-08-01 10:16,N,4,10,60:A4:23:C9:A0:4C,3,30.5,1006,24,32,22,53,83,2022-08-01 10:16,142,2022-08-01 19:16
768,2022-08-01 10:17,N,4,19,60:A4:23:D4:5D:84,3,34.4,1029,76,96,81,169,66,2022-08-01 10:17,140,2022-08-01 19:17
769,2022-08-01 10:18,N,4,13,60:A4:23:C9:A0:3E,3,31.9,1023,38,41,28,73,74,2022-08-01 10:18,141,2022-08-01 19:18
770,2022-08-01 10:20,N,4,14,60:A4:23:C9:A0:2F,3.1,33.1,1016,78,80,74,156,64,2022-08-01 10:20,141,2022-08-01 19:20
771,2022-08-01 10:20,N,4,11,60:A4:23:C9:A0:9B,3,33.4,1011,38,39,27,71,64,2022-08-01 10:20,142,2022-08-01 19:21
772,2022-08-01 10:21,N,4,15,60:A4:23:C9:A0:3B,3,30.7,1026,80,76,55,143,73,2022-08-01 10:21,141,2022-08-01 19:22
773,2022-08-01 10:22,V,3,001A,60:A4:23:7C:A5:F3,1.1,28.7,1013,4,4,6,10,89,2022-08-01 10:22,135,2022-08-01 19:22
774,2022-08-01 10:22,N,4,12,60:A4:23:C9:A0:4D,3,28,1022,43,50,45,93,65,2022-08-01 10:22,142,2022-08-01 19:22
775,2022-08-01 10:22,N,4,16,60:A4:23:D4:5D:A3,3.1,32,1006,66,71,70,140,72,2022-08-01 10:22,141,2022-08-01 19:22
776,2022-08-01 10:24,V,3,001E,60:A4:23:7F:3D:60,1.4,29.9,1013,4,4,5,10,95,2022-08-01 10:24,136,2022-08-01 19:24
777,2022-08-01 10:24,N,4,17,60:A4:23:D4:5D:C7,3.1,30,1009,28,39,31,67,79,2022-08-01 10:24,141,2022-08-01 19:24
778,2022-08-01 10:25,V,3,001C,60:A4:23:7F:49:30,1.3,30.5,1013,4,4,6,10,94,2022-08-01 10:25,106,2022-08-01 19:25
779,2022-08-01 10:25,N,4,18,60:A4:23:C9:A0:E3,3.1,32.9,1006,47,59,58,110,71,2022-08-01 10:25,141,2022-08-01 19:25
780,2022-08-01 10:25,V,3,001D,60:A4:23:7F:3D:52,1.3,26,1013,4,5,6,10,94,2022-08-01 10:25,136,2022-08-01 19:25
781,2022-08-01 10:26,N,4,10,60:A4:23:C9:A0:4C,3,30.1,1006,54,71,49,118,85,2022-08-01 10:26,143,2022-08-01 19:26
782,2022-08-01 10:27,N,4,19,60:A4:23:D4:5D:84,3,33.8,1029,43,64,47,104,81,2022-08-01 10:27,141,2022-08-01 19:27
783,2022-08-01 10:28,N,4,13,60:A4:23:C9:A0:3E,3,31.9,1023,38,47,31,79,87,2022-08-01 10:28,142,2022-08-01 19:28
784,2022-08-01 10:30,N,4,14,60:A4:23:C9:A0:2F,3.1,32.9,1016,69,78,65,142,77,2022-08-01 10:30,142,2022-08-01 19:30
785,2022-08-01 10:30,N,4,11,60:A4:23:C9:A0:9B,3,32.7,1011,87,94,62,163,76,2022-08-01 10:30,143,2022-08-01 19:31
786,2022-08-01 10:31,N,4,15,60:A4:23:C9:A0:3B,3,31,1026,56,56,40,103,75,2022-08-01 10:31,142,2022-08-01 19:32
787,2022-08-01 10:32,V,3,001A,60:A4:23:7C:A5:F3,1.1,28.5,1013,4,4,6,10,89,2022-08-01 10:32,136,2022-08-01 19:32
788,2022-08-01 10:32,N,4,12,60:A4:23:C9:A0:4D,3,27.8,1022,46,51,42,93,90,2022-08-01 10:32,143,2022-08-01 19:32
789,2022-08-01 10:32,N,4,16,60:A4:23:D4:5D:A3,3.1,32.1,1006,47,56,53,105,78,2022-08-01 10:32,142,2022-08-01 19:32
790,2022-08-01 10:34,V,3,001E,60:A4:23:7F:3D:60,1.3,29.6,1013,4,4,5,9,97,2022-08-01 10:34,137,2022-08-01 19:34
791,2022-08-01 10:34,N,4,17,60:A4:23:D4:5D:C7,3.1,29.6,1009,37,57,38,89,76,2022-08-01 10:34,142,2022-08-01 19:34
792,2022-08-01 10:35,V,3,001C,60:A4:23:7F:49:30,1.3,30.3,1013,4,4,6,10,92,2022-08-01 10:35,107,2022-08-01 19:35
793,2022-08-01 10:35,N,4,18,60:A4:23:C9:A0:E3,3.1,32.7,1006,43,63,49,106,79,2022-08-01 10:35,142,2022-08-01 19:35
794,2022-08-01 10:35,V,3,001D,60:A4:23:7F:3D:52,1.3,25.8,1013,5,4,5,10,93,2022-08-01 10:35,137,2022-08-01 19:35
795,2022-08-01 10:36,N,4,10,60:A4:23:C9:A0:4C,3,30.1,1006,46,62,48,104,72,2022-08-01 10:36,144,2022-08-01 19:36
796,2022-08-01 10:37,N,4,19,60:A4:23:D4:5D:84,3,33.1,1029,83,123,94,201,69,2022-08-01 10:37,142,2022-08-01 19:37
797,2022-08-01 10:38,N,4,13,60:A4:23:C9:A0:3E,3,32.2,1023,49,52,39,95,78,2022-08-01 10:38,143,2022-08-01 19:38
798,2022-08-01 10:40,N,4,14,60:A4:23:C9:A0:2F,3.1,32.7,1016,78,92,79,167,65,2022-08-01 10:40,143,2022-08-01 19:40
799,2022-08-01 10:40,N,4,11,60:A4:23:C9:A0:9B,3,32.7,1011,90,72,55,147,67,2022-08-01 10:40,144,2022-08-01 19:41
800,2022-08-01 10:41,N,4,15,60:A4:23:C9:A0:3B,3,30.9,1026,13,19,16,33,68,2022-08-01 10:41,143,2022-08-01 19:42
801,2022-08-01 10:42,V,3,001A,60:A4:23:7C:A5:F3,1.1,28.3,1013,4,4,6,10,89,2022-08-01 10:42,137,2022-08-01 19:42
802,2022-08-01 10:42,N,4,12,60:A4:23:C9:A0:4D,3,28.5,1022,13,16,14,30,71,2022-08-01 10:42,144,2022-08-01 19:42
803,2022-08-01 10:42,N,4,16,60:A4:23:D4:5D:A3,3.1,31.7,1006,24,29,24,52,76,2022-08-01 10:42,143,2022-08-01 19:42
804,2022-08-01 10:44,V,3,001E,60:A4:23:7F:3D:60,1.3,29.4,1013,4,4,5,9,95,2022-08-01 10:44,138,2022-08-01 19:44
805,2022-08-01 10:44,N,4,17,60:A4:23:D4:5D:C7,3.1,30.4,1009,25,31,24,53,73,2022-08-01 10:44,143,2022-08-01 19:44
806,2022-08-01 10:45,V,3,001C,60:A4:23:7F:49:30,1.3,30,1013,4,4,5,10,94,2022-08-01 10:45,108,2022-08-01 19:45
807,2022-08-01 10:45,N,4,18,60:A4:23:C9:A0:E3,3.1,32.7,1006,56,68,69,132,78,2022-08-01 10:45,143,2022-08-01 19:45
808,2022-08-01 10:45,V,3,001D,60:A4:23:7F:3D:52,1.4,25.6,1013,5,5,5,10,86,2022-08-01 10:45,138,2022-08-01 19:45
809,2022-08-01 10:46,N,4,10,60:A4:23:C9:A0:4C,3,30.2,1006,30,42,27,68,76,2022-08-01 10:46,145,2022-08-01 19:46
810,2022-08-01 10:47,N,4,19,60:A4:23:D4:5D:84,3,32.1,1029,102,130,89,214,67,2022-08-01 10:47,143,2022-08-01 19:47
811,2022-08-01 10:48,N,4,13,60:A4:23:C9:A0:3E,3,32.1,1023,70,87,73,152,71,2022-08-01 10:48,144,2022-08-01 19:48
812,2022-08-01 10:50,N,4,14,60:A4:23:C9:A0:2F,3.1,32,1016,58,64,58,122,74,2022-08-01 10:50,144,2022-08-01 19:50
813,2022-08-01 10:50,N,4,11,60:A4:23:C9:A0:9B,3,32.3,1011,62,59,47,113,77,2022-08-01 10:50,145,2022-08-01 19:51
814,2022-08-01 10:51,N,4,15,60:A4:23:C9:A0:3B,3,29.2,1026,16,21,17,37,73,2022-08-01 10:51,144,2022-08-01 19:52
815,2022-08-01 10:52,V,3,001A,60:A4:23:7C:A5:F3,1.1,28,1013,4,4,5,10,89,2022-08-01 10:52,138,2022-08-01 19:52
816,2022-08-01 10:52,N,4,12,60:A4:23:C9:A0:4D,3,28.7,1022,14,19,17,34,75,2022-08-01 10:52,145,2022-08-01 19:52
817,2022-08-01 10:52,N,4,16,60:A4:23:D4:5D:A3,3.1,31.3,1006,36,48,32,79,72,2022-08-01 10:52,144,2022-08-01 19:52
818,2022-08-01 10:54,V,3,001E,60:A4:23:7F:3D:60,1.3,29.3,1013,4,4,5,10,94,2022-08-01 10:54,139,2022-08-01 19:54
819,2022-08-01 10:54,N,4,17,60:A4:23:D4:5D:C7,3.1,30.3,1009,40,48,39,86,75,2022-08-01 10:54,144,2022-08-01 19:54
820,2022-08-01 10:55,N,4,18,60:A4:23:C9:A0:E3,3.1,32.6,1006,58,85,64,140,85,2022-08-01 10:55,144,2022-08-01 19:55
821,2022-08-01 10:55,V,3,001D,60:A4:23:7F:3D:52,1.3,25.4,1013,5,4,6,10,93,2022-08-01 10:55,139,2022-08-01 19:55
822,2022-08-01 10:56,N,4,10,60:A4:23:C9:A0:4C,3,29.7,1006,42,56,52,101,83,2022-08-01 10:56,146,2022-08-01 19:56
823,2022-08-01 10:57,N,4,19,60:A4:23:D4:5D:84,3,31.5,1029,69,92,68,153,87,2022-08-01 10:57,144,2022-08-01 19:57
824,2022-08-01 10:58,N,4,13,60:A4:23:C9:A0:3E,3,32,1023,29,35,24,59,72,2022-08-01 10:58,145,2022-08-01 19:58
825,2022-08-01 11:00,N,4,14,60:A4:23:C9:A0:2F,3.1,32.4,1016,20,23,19,42,77,2022-08-01 11:00,145,2022-08-01 20:00
826,2022-08-01 11:00,N,4,11,60:A4:23:C9:A0:9B,3,32.1,1011,104,79,61,163,84,2022-08-01 11:00,146,2022-08-01 20:01
827,2022-08-01 11:01,N,4,15,60:A4:23:C9:A0:3B,3,29.5,1026,59,60,51,113,74,2022-08-01 11:01,145,2022-08-01 20:02
828,2022-08-01 11:02,V,3,001A,60:A4:23:7C:A5:F3,1.1,28,1013,4,4,6,10,89,2022-08-01 11:02,139,2022-08-01 20:02
829,2022-08-01 11:02,N,4,12,60:A4:23:C9:A0:4D,3,28.6,1022,33,46,37,78,74,2022-08-01 11:02,146,2022-08-01 20:02
830,2022-08-01 11:02,N,4,16,60:A4:23:D4:5D:A3,3.1,32.2,1006,12,17,13,28,84,2022-08-01 11:02,145,2022-08-01 20:02
831,2022-08-01 11:04,N,4,17,60:A4:23:D4:5D:C7,3.1,30,1009,32,45,33,75,78,2022-08-01 11:04,145,2022-08-01 20:04
832,2022-08-01 11:05,V,3,001C,60:A4:23:7F:49:30,1.3,29.7,1013,5,4,5,10,93,2022-08-01 11:05,110,2022-08-01 20:05
833,2022-08-01 11:05,N,4,18,60:A4:23:C9:A0:E3,3.1,32.3,1006,69,78,76,149,81,2022-08-01 11:05,145,2022-08-01 20:05
834,2022-08-01 11:05,V,3,001D,60:A4:23:7F:3D:52,1.3,25.3,1013,5,5,6,10,96,2022-08-01 11:05,140,2022-08-01 20:05
835,2022-08-01 11:06,N,4,10,60:A4:23:C9:A0:4C,3,31,1006,7,9,9,17,80,2022-08-01 11:06,147,2022-08-01 20:06
836,2022-08-01 11:07,N,4,19,60:A4:23:D4:5D:84,3,31.8,1029,93,124,82,200,68,2022-08-01 11:07,145,2022-08-01 20:07
837,2022-08-01 11:08,N,4,13,60:A4:23:C9:A0:3E,3,33,1023,10,11,10,22,77,2022-08-01 11:08,146,2022-08-01 20:08
838,2022-08-01 11:10,N,4,14,60:A4:23:C9:A0:2F,3.1,33.2,1016,10,11,10,21,80,2022-08-01 11:10,146,2022-08-01 20:10
839,2022-08-01 11:10,N,4,11,60:A4:23:C9:A0:9B,3,32.2,1011,24,22,16,42,71,2022-08-01 11:10,147,2022-08-01 20:11
840,2022-08-01 11:11,N,4,15,60:A4:23:C9:A0:3B,3,30,1026,39,53,37,87,73,2022-08-01 11:11,146,2022-08-01 20:12
841,2022-08-01 11:12,V,3,001A,60:A4:23:7C:A5:F3,1.1,27.8,1013,4,4,6,10,90,2022-08-01 11:12,140,2022-08-01 20:12
842,2022-08-01 11:12,N,4,12,60:A4:23:C9:A0:4D,3,28.2,1022,81,90,90,175,82,2022-08-01 11:12,147,2022-08-01 20:12
843,2022-08-01 11:12,N,4,16,60:A4:23:D4:5D:A3,3.1,31.7,1006,17,24,20,41,76,2022-08-01 11:12,146,2022-08-01 20:12
844,2022-08-01 11:14,V,3,001E,60:A4:23:7F:3D:60,1.3,29,1013,4,4,5,10,96,2022-08-01 11:14,141,2022-08-01 20:14
845,2022-08-01 11:14,N,4,17,60:A4:23:D4:5D:C7,3.1,30.9,1009,5,6,7,13,81,2022-08-01 11:14,146,2022-08-01 20:14
846,2022-08-01 11:15,V,3,001C,60:A4:23:7F:49:30,1.3,29.6,1013,4,4,5,10,96,2022-08-01 11:15,111,2022-08-01 20:15
847,2022-08-01 11:15,N,4,18,60:A4:23:C9:A0:E3,3.1,32.2,1006,18,31,18,46,79,2022-08-01 11:15,146,2022-08-01 20:15
848,2022-08-01 11:15,V,3,001D,60:A4:23:7F:3D:52,1.4,25.2,1013,4,4,5,10,93,2022-08-01 11:15,141,2022-08-01 20:15
849,2022-08-01 11:16,N,4,10,60:A4:23:C9:A0:4C,3,31.4,1006,8,9,9,18,89,2022-08-01 11:16,148,2022-08-01 20:16
850,2022-08-01 11:17,N,4,19,60:A4:23:D4:5D:84,3,32.4,1029,49,67,52,112,70,2022-08-01 11:17,146,2022-08-01 20:17
851,2022-08-01 11:18,N,4,13,60:A4:23:C9:A0:3E,3,32.1,1023,22,23,20,44,78,2022-08-01 11:18,147,2022-08-01 20:18
852,2022-08-01 11:20,N,4,14,60:A4:23:C9:A0:2F,3.1,33.2,1016,19,21,17,39,72,2022-08-01 11:20,147,2022-08-01 20:20
853,2022-08-01 11:20,N,4,11,60:A4:23:C9:A0:9B,3,32.5,1011,33,26,16,52,73,2022-08-01 11:20,148,2022-08-01 20:21
854,2022-08-01 11:21,N,4,15,60:A4:23:C9:A0:3B,3,30.1,1026,89,95,80,178,77,2022-08-01 11:21,147,2022-08-01 20:22
855,2022-08-01 11:22,V,3,001A,60:A4:23:7C:A5:F3,1.1,27.6,1013,5,4,6,10,88,2022-08-01 11:22,141,2022-08-01 20:22
856,2022-08-01 11:22,N,4,12,60:A4:23:C9:A0:4D,3,28.2,1022,23,33,28,57,72,2022-08-01 11:22,148,2022-08-01 20:22
857,2022-08-01 11:22,N,4,16,60:A4:23:D4:5D:A3,3.1,30.8,1006,21,30,21,49,73,2022-08-01 11:22,147,2022-08-01 20:22
858,2022-08-01 11:24,V,3,001E,60:A4:23:7F:3D:60,1.3,28.9,1013,4,5,5,10,94,2022-08-01 11:24,142,2022-08-01 20:24
859,2022-08-01 11:24,N,4,17,60:A4:23:D4:5D:C7,3.1,31.4,1009,17,19,14,33,78,2022-08-01 11:24,147,2022-08-01 20:24
860,2022-08-01 11:25,V,3,001C,60:A4:23:7F:49:30,1.3,29.5,1013,4,4,6,10,94,2022-08-01 11:25,112,2022-08-01 20:25
861,2022-08-01 11:25,N,4,18,60:A4:23:C9:A0:E3,3.1,30.9,1006,13,27,14,38,87,2022-08-01 11:25,147,2022-08-01 20:25
862,2022-08-01 11:25,V,3,001D,60:A4:23:7F:3D:52,1.4,25,1013,5,4,5,10,94,2022-08-01 11:25,142,2022-08-01 20:25
863,2022-08-01 11:26,N,4,10,60:A4:23:C9:A0:4C,3,31.1,1006,28,33,23,57,77,2022-08-01 11:26,149,2022-08-01 20:26
864,2022-08-01 11:27,N,4,19,60:A4:23:D4:5D:84,3,32.8,1029,54,70,49,116,79,2022-08-01 11:27,147,2022-08-01 20:27
865,2022-08-01 11:28,N,4,13,60:A4:23:C9:A0:3E,3,30.9,1023,26,28,23,52,75,2022-08-01 11:28,148,2022-08-01 20:28
866,2022-08-01 11:30,N,4,14,60:A4:23:C9:A0:2F,3.1,32.8,1016,35,48,32,78,69,2022-08-01 11:30,148,2022-08-01 20:30
867,2022-08-01 11:30,N,4,11,60:A4:23:C9:A0:9B,3,32.5,1011,31,26,18,52,72,2022-08-01 11:30,149,2022-08-01 20:31
868,2022-08-01 11:31,N,4,15,60:A4:23:C9:A0:3B,3,30.1,1026,46,50,35,88,71,2022-08-01 11:31,148,2022-08-01 20:32
869,2022-08-01 11:32,V,3,001A,60:A4:23:7C:A5:F3,1.1,27.5,1013,4,4,5,10,88,2022-08-01 11:32,142,2022-08-01 20:32
870,2022-08-01 11:32,N,4,12,60:A4:23:C9:A0:4D,3,28.2,1022,22,30,27,54,68,2022-08-01 11:32,149,2022-08-01 20:32
871,2022-08-01 11:32,N,4,16,60:A4:23:D4:5D:A3,3.1,29,1006,22,28,22,49,79,2022-08-01 11:32,148,2022-08-01 20:32
872,2022-08-01 11:34,V,3,001E,60:A4:23:7F:3D:60,1.3,28.8,1013,4,5,5,10,93,2022-08-01 11:34,143,2022-08-01 20:34
873,2022-08-01 11:34,N,4,17,60:A4:23:D4:5D:C7,3.1,31.4,1009,25,23,19,45,73,2022-08-01 11:34,148,2022-08-01 20:34
874,2022-08-01 11:35,V,3,001C,60:A4:23:7F:49:30,1.3,29.5,1013,4,4,5,10,94,2022-08-01 11:35,113,2022-08-01 20:35
875,2022-08-01 11:35,N,4,18,60:A4:23:C9:A0:E3,3.1,30,1006,17,30,17,44,74,2022-08-01 11:35,148,2022-08-01 20:35
876,2022-08-01 11:35,V,3,001D,60:A4:23:7F:3D:52,1.3,25,1013,4,4,6,10,92,2022-08-01 11:35,143,2022-08-01 20:35
877,2022-08-01 11:36,N,4,10,60:A4:23:C9:A0:4C,3,30.3,1006,53,90,58,136,85,2022-08-01 11:36,150,2022-08-01 20:36
878,2022-08-01 11:37,N,4,19,60:A4:23:D4:5D:84,3,32.3,1029,32,47,30,74,77,2022-08-01 11:37,148,2022-08-01 20:37
879,2022-08-01 11:38,N,4,13,60:A4:23:C9:A0:3E,3,30.4,1023,123,149,129,268,90,2022-08-01 11:38,149,2022-08-01 20:38
880,2022-08-01 11:40,N,4,14,60:A4:23:C9:A0:2F,3.1,32.5,1016,43,54,43,95,73,2022-08-01 11:40,149,2022-08-01 20:40
881,2022-08-01 11:40,N,4,11,60:A4:23:C9:A0:9B,3,32.3,1011,56,58,43,106,74,2022-08-01 11:40,150,2022-08-01 20:41
882,2022-08-01 11:41,N,4,15,60:A4:23:C9:A0:3B,3,31,1026,15,17,17,33,79,2022-08-01 11:41,149,2022-08-01 20:42
883,2022-08-01 11:42,V,3,001A,60:A4:23:7C:A5:F3,1.1,27.5,1014,4,4,6,10,89,2022-08-01 11:42,143,2022-08-01 20:42
884,2022-08-01 11:42,N,4,12,60:A4:23:C9:A0:4D,3,27.4,1022,45,53,45,96,83,2022-08-01 11:42,150,2022-08-01 20:42
885,2022-08-01 11:42,N,4,16,60:A4:23:D4:5D:A3,3.1,29.5,1006,33,42,34,72,76,2022-08-01 11:42,149,2022-08-01 20:42
886,2022-08-01 11:44,N,4,17,60:A4:23:D4:5D:C7,3.1,31.3,1009,29,28,22,53,78,2022-08-01 11:44,149,2022-08-01 20:44
887,2022-08-01 11:45,V,3,001C,60:A4:23:7F:49:30,1.3,29.3,1013,4,4,6,10,94,2022-08-01 11:45,114,2022-08-01 20:45
888,2022-08-01 11:45,N,4,18,60:A4:23:C9:A0:E3,3.1,29.9,1006,17,28,17,43,96,2022-08-01 11:45,149,2022-08-01 20:45
889,2022-08-01 11:45,V,3,001D,60:A4:23:7F:3D:52,1.3,24.9,1013,5,5,6,11,95,2022-08-01 11:45,144,2022-08-01 20:45
890,2022-08-01 11:46,N,4,10,60:A4:23:C9:A0:4C,3,30.1,1006,189,197,162,368,72,2022-08-01 11:46,151,2022-08-01 20:46
891,2022-08-01 11:47,N,4,19,60:A4:23:D4:5D:84,3,32.5,1029,35,43,35,76,76,2022-08-01 11:47,149,2022-08-01 20:47
892,2022-08-01 11:48,N,4,13,60:A4:23:C9:A0:3E,3,31.4,1023,154,179,149,321,76,2022-08-01 11:48,150,2022-08-01 20:48
893,2022-08-01 11:50,N,4,14,60:A4:23:C9:A0:2F,3.1,32.7,1016,43,59,42,97,67,2022-08-01 11:50,150,2022-08-01 20:50
894,2022-08-01 11:50,N,4,11,60:A4:23:C9:A0:9B,3,32,1011,49,55,38,95,62,2022-08-01 11:50,151,2022-08-01 20:51
895,2022-08-01 11:51,N,4,15,60:A4:23:C9:A0:3B,3,31.1,1026,27,34,30,61,74,2022-08-01 11:51,150,2022-08-01 20:52
896,2022-08-01 11:52,V,3,001A,60:A4:23:7C:A5:F3,1.1,27.4,1014,5,4,6,10,90,2022-08-01 11:52,144,2022-08-01 20:52
897,2022-08-01 11:52,N,4,12,60:A4:23:C9:A0:4D,3,26.9,1022,65,61,49,120,79,2022-08-01 11:52,151,2022-08-01 20:52
898,2022-08-01 11:52,N,4,16,60:A4:23:D4:5D:A3,3.1,30,1006,57,67,57,121,78,2022-08-01 11:52,150,2022-08-01 20:52
899,2022-08-01 11:54,N,4,17,60:A4:23:D4:5D:C7,3.1,30.9,1009,33,32,27,62,75,2022-08-01 11:54,150,2022-08-01 20:54
900,2022-08-01 11:55,V,3,001C,60:A4:23:7F:49:30,1.3,29.2,1013,4,4,5,10,92,2022-08-01 11:55,115,2022-08-01 20:55
901,2022-08-01 11:55,N,4,18,60:A4:23:C9:A0:E3,3.1,31.8,1006,56,72,55,122,81,2022-08-01 11:55,150,2022-08-01 20:55
902,2022-08-01 11:55,V,3,001D,60:A4:23:7F:3D:52,1.3,24.8,1013,4,5,6,10,96,2022-08-01 11:55,145,2022-08-01 20:55
903,2022-08-01 11:56,N,4,10,60:A4:23:C9:A0:4C,3,29.6,1006,78,90,70,161,73,2022-08-01 11:56,152,2022-08-01 20:56
904,2022-08-01 11:57,N,4,19,60:A4:23:D4:5D:84,3,31.6,1029,17,18,13,33,85,2022-08-01 11:57,150,2022-08-01 20:57
905,2022-08-01 11:58,N,4,13,60:A4:23:C9:A0:3E,3,31.8,1023,34,48,33,79,78,2022-08-01 11:58,151,2022-08-01 20:58
906,2022-08-01 12:00,N,4,14,60:A4:23:C9:A0:2F,3.1,32.5,1016,60,67,57,122,77,2022-08-01 12:00,151,2022-08-01 21:00
907,2022-08-01 12:00,N,4,11,60:A4:23:C9:A0:9B,3,32,1011,49,59,43,102,70,2022-08-01 12:00,152,2022-08-01 21:01
908,2022-08-01 12:01,N,4,15,60:A4:23:C9:A0:3B,3,30.1,1026,36,47,31,77,83,2022-08-01 12:01,151,2022-08-01 21:02
909,2022-08-01 12:02,V,3,001A,60:A4:23:7C:A5:F3,1.1,27.3,1014,4,4,6,10,88,2022-08-01 12:02,145,2022-08-01 21:02
910,2022-08-01 12:02,N,4,12,60:A4:23:C9:A0:4D,3,26.9,1022,61,70,59,127,81,2022-08-01 12:02,152,2022-08-01 21:02
911,2022-08-01 12:02,N,4,16,60:A4:23:D4:5D:A3,3.1,29.8,1006,58,69,67,130,81,2022-08-01 12:02,151,2022-08-01 21:02
912,2022-08-01 12:04,N,4,17,60:A4:23:D4:5D:C7,3.1,30.6,1009,14,19,17,33,75,2022-08-01 12:04,151,2022-08-01 21:04
913,2022-08-01 12:05,V,3,001C,60:A4:23:7F:49:30,1.3,29.2,1014,4,4,5,10,95,2022-08-01 12:05,116,2022-08-01 21:05
914,2022-08-01 12:05,N,4,18,60:A4:23:C9:A0:E3,3.1,32.3,1006,30,33,29,62,75,2022-08-01 12:05,151,2022-08-01 21:05
915,2022-08-01 12:05,V,3,001D,60:A4:23:7F:3D:52,1.3,24.7,1013,5,4,5,10,93,2022-08-01 12:05,146,2022-08-01 21:05
916,2022-08-01 12:06,N,4,10,60:A4:23:C9:A0:4C,3,29.2,1006,22,28,23,50,76,2022-08-01 12:06,153,2022-08-01 21:06
917,2022-08-01 12:07,N,4,19,60:A4:23:D4:5D:84,3,30.2,1029,24,21,17,42,69,2022-08-01 12:07,151,2022-08-01 21:07
918,2022-08-01 12:08,N,4,13,60:A4:23:C9:A0:3E,3,32,1023,18,21,22,41,82,2022-08-01 12:08,152,2022-08-01 21:08
919,2022-08-01 12:10,N,4,14,60:A4:23:C9:A0:2F,3.1,32.2,1016,30,32,30,61,67,2022-08-01 12:10,152,2022-08-01 21:10
920,2022-08-01 12:10,N,4,11,60:A4:23:C9:A0:9B,3,32,1011,45,53,44,96,71,2022-08-01 12:10,153,2022-08-01 21:11
921,2022-08-01 12:11,N,4,15,60:A4:23:C9:A0:3B,3,30.4,1026,41,51,42,90,79,2022-08-01 12:11,152,2022-08-01 21:12
922,2022-08-01 12:12,V,3,001A,60:A4:23:7C:A5:F3,1.1,27.2,1014,4,4,5,10,89,2022-08-01 12:12,146,2022-08-01 21:12
923,2022-08-01 12:12,N,4,12,60:A4:23:C9:A0:4D,3,26.1,1022,31,43,36,74,90,2022-08-01 12:12,153,2022-08-01 21:12
924,2022-08-01 12:12,N,4,16,60:A4:23:D4:5D:A3,3.1,29.5,1006,27,32,24,56,80,2022-08-01 12:12,152,2022-08-01 21:12
925,2022-08-01 12:14,V,3,001E,60:A4:23:7F:3D:60,1.3,28.4,1014,4,4,5,9,95,2022-08-01 12:14,147,2022-08-01 21:14
926,2022-08-01 12:14,N,4,17,60:A4:23:D4:5D:C7,3.1,29.7,1009,37,45,38,81,68,2022-08-01 12:14,152,2022-08-01 21:14
927,2022-08-01 12:15,V,3,001C,60:A4:23:7F:49:30,1.3,29.1,1014,4,5,5,10,94,2022-08-01 12:15,117,2022-08-01 21:15
928,2022-08-01 12:15,N,4,18,60:A4:23:C9:A0:E3,3.1,31.6,1006,16,22,20,40,77,2022-08-01 12:15,152,2022-08-01 21:15
929,2022-08-01 12:15,V,3,001D,60:A4:23:7F:3D:52,1.3,24.6,1014,4,5,6,10,93,2022-08-01 12:15,147,2022-08-01 21:15
930,2022-08-01 12:16,N,4,10,60:A4:23:C9:A0:4C,3,29.1,1006,21,29,20,47,74,2022-08-01 12:16,154,2022-08-01 21:16
931,2022-08-01 12:17,N,4,19,60:A4:23:D4:5D:84,3,30.7,1029,9,11,10,21,96,2022-08-01 12:17,152,2022-08-01 21:17
932,2022-08-01 12:18,N,4,13,60:A4:23:C9:A0:3E,3,32,1023,16,20,13,34,73,2022-08-01 12:18,153,2022-08-01 21:18
933,2022-08-01 12:20,N,4,14,60:A4:23:C9:A0:2F,3.1,31.4,1016,63,56,51,115,69,2022-08-01 12:20,153,2022-08-01 21:20
934,2022-08-01 12:20,N,4,11,60:A4:23:C9:A0:9B,3,32.4,1011,40,40,33,76,72,2022-08-01 12:20,154,2022-08-01 21:21
935,2022-08-01 12:21,N,4,15,60:A4:23:C9:A0:3B,3,30.3,1026,39,53,45,93,75,2022-08-01 12:21,153,2022-08-01 21:22
936,2022-08-01 12:22,V,3,001A,60:A4:23:7C:A5:F3,1.1,27.2,1014,4,4,6,10,89,2022-08-01 12:22,147,2022-08-01 21:22
937,2022-08-01 12:22,N,4,12,60:A4:23:C9:A0:4D,3,26.5,1022,23,34,26,56,78,2022-08-01 12:22,154,2022-08-01 21:22
938,2022-08-01 12:22,N,4,16,60:A4:23:D4:5D:A3,3.1,28.2,1006,20,24,20,43,78,2022-08-01 12:22,153,2022-08-01 21:22
939,2022-08-01 12:24,V,3,001E,60:A4:23:7F:3D:60,1.3,28.4,1014,4,4,5,10,86,2022-08-01 12:24,148,2022-08-01 21:24
940,2022-08-01 12:24,N,4,17,60:A4:23:D4:5D:C7,3.1,26.6,1009,7,9,10,18,75,2022-08-01 12:24,153,2022-08-01 21:24
941,2022-08-01 12:25,V,3,001C,60:A4:23:7F:49:30,1.3,29.1,1014,4,5,5,10,92,2022-08-01 12:25,118,2022-08-01 21:25
942,2022-08-01 12:25,N,4,18,60:A4:23:C9:A0:E3,3.1,29.3,1006,10,13,13,25,71,2022-08-01 12:25,153,2022-08-01 21:25
943,2022-08-01 12:25,V,3,001D,60:A4:23:7F:3D:52,1.3,24.5,1014,5,4,6,10,95,2022-08-01 12:25,148,2022-08-01 21:25
944,2022-08-01 12:26,N,4,10,60:A4:23:C9:A0:4C,3,28.5,1006,47,55,40,95,77,2022-08-01 12:26,155,2022-08-01 21:26
945,2022-08-01 12:28,N,4,13,60:A4:23:C9:A0:3E,3,31.1,1023,27,28,19,50,79,2022-08-01 12:28,154,2022-08-01 21:28
946,2022-08-01 12:30,N,4,14,60:A4:23:C9:A0:2F,3.1,32,1016,26,37,31,64,73,2022-08-01 12:30,154,2022-08-01 21:30
947,2022-08-01 12:30,N,4,11,60:A4:23:C9:A0:9B,3,32.2,1011,24,23,23,47,79,2022-08-01 12:30,155,2022-08-01 21:31
948,2022-08-01 12:31,N,4,15,60:A4:23:C9:A0:3B,3,30.6,1026,21,22,24,44,72,2022-08-01 12:31,154,2022-08-01 21:32
949,2022-08-01 12:32,V,3,001A,60:A4:23:7C:A5:F3,1.1,27.1,1014,4,4,6,10,90,2022-08-01 12:32,148,2022-08-01 21:32
950,2022-08-01 12:32,N,4,12,60:A4:23:C9:A0:4D,3,26.2,1022,48,67,66,122,66,2022-08-01 12:32,155,2022-08-01 21:32
951,2022-08-01 12:32,N,4,16,60:A4:23:D4:5D:A3,3.1,28.5,1006,25,31,21,51,81,2022-08-01 12:32,154,2022-08-01 21:32
952,2022-08-01 12:34,V,3,001E,60:A4:23:7F:3D:60,1.3,28.3,1014,4,4,6,10,94,2022-08-01 12:34,149,2022-08-01 21:34
953,2022-08-01 12:34,N,4,17,60:A4:23:D4:5D:C7,3.1,28.7,1009,15,16,16,31,72,2022-08-01 12:34,154,2022-08-01 21:34
954,2022-08-01 12:35,V,3,001C,60:A4:23:7F:49:30,1.3,29,1014,4,5,5,10,94,2022-08-01 12:35,119,2022-08-01 21:35
955,2022-08-01 12:35,N,4,18,60:A4:23:C9:A0:E3,3.1,29.3,1006,11,14,14,27,67,2022-08-01 12:35,154,2022-08-01 21:35
956,2022-08-01 12:36,N,4,10,60:A4:23:C9:A0:4C,3,27.7,1006,53,51,41,98,75,2022-08-01 12:36,156,2022-08-01 21:36
957,2022-08-01 12:38,N,4,13,60:A4:23:C9:A0:3E,3,31.4,1023,46,53,38,92,72,2022-08-01 12:38,155,2022-08-01 21:38
958,2022-08-01 12:40,N,4,14,60:A4:23:C9:A0:2F,3.1,32.5,1016,17,16,14,32,75,2022-08-01 12:40,155,2022-08-01 21:40
959,2022-08-01 12:40,N,4,11,60:A4:23:C9:A0:9B,3,32.7,1011,24,16,13,36,73,2022-08-01 12:40,156,2022-08-01 21:41
960,2022-08-01 12:41,N,4,15,60:A4:23:C9:A0:3B,3,30.9,1026,31,53,32,79,79,2022-08-01 12:41,155,2022-08-01 21:42
961,2022-08-01 12:42,V,3,001A,60:A4:23:7C:A5:F3,1.1,27.1,1014,4,4,6,10,89,2022-08-01 12:42,149,2022-08-01 21:42
962,2022-08-01 12:42,N,4,12,60:A4:23:C9:A0:4D,3,26.2,1022,48,64,54,112,70,2022-08-01 12:42,156,2022-08-01 21:42
963,2022-08-01 12:42,N,4,16,60:A4:23:D4:5D:A3,3.1,29.1,1006,41,55,41,92,74,2022-08-01 12:42,155,2022-08-01 21:42
964,2022-08-01 12:44,N,4,17,60:A4:23:D4:5D:C7,3.1,30,1009,24,27,24,51,69,2022-08-01 12:44,155,2022-08-01 21:44
965,2022-08-01 12:45,V,3,001C,60:A4:23:7F:49:30,1.3,29,1014,4,5,5,10,93,2022-08-01 12:45,120,2022-08-01 21:45
966,2022-08-01 12:45,N,4,18,60:A4:23:C9:A0:E3,3.1,28.3,1006,15,21,20,38,70,2022-08-01 12:45,155,2022-08-01 21:45
967,2022-08-01 12:45,V,3,001D,60:A4:23:7F:3D:52,1.3,24.5,1014,4,4,6,10,97,2022-08-01 12:45,150,2022-08-01 21:45
968,2022-08-01 12:46,N,4,10,60:A4:23:C9:A0:4C,3,29.1,1006,14,29,18,42,75,2022-08-01 12:46,157,2022-08-01 21:46
969,2022-08-01 12:47,N,4,19,60:A4:23:D4:5D:84,3,32.8,1029,67,101,70,159,76,2022-08-01 12:47,155,2022-08-01 21:47
970,2022-08-01 12:48,N,4,13,60:A4:23:C9:A0:3E,3,31.4,1023,104,132,106,231,73,2022-08-01 12:48,156,2022-08-01 21:48
971,2022-08-01 12:50,N,4,14,60:A4:23:C9:A0:2F,3.1,31.9,1016,36,43,39,79,89,2022-08-01 12:50,156,2022-08-01 21:50
972,2022-08-01 12:50,N,4,11,60:A4:23:C9:A0:9B,3,32.5,1011,70,73,78,148,81,2022-08-01 12:50,157,2022-08-01 21:51
973,2022-08-01 12:51,N,4,15,60:A4:23:C9:A0:3B,3,30.6,1026,22,27,21,47,84,2022-08-01 12:51,156,2022-08-01 21:52
974,2022-08-01 12:52,V,3,001A,60:A4:23:7C:A5:F3,1.1,27,1014,4,4,6,10,88,2022-08-01 12:52,150,2022-08-01 21:52
975,2022-08-01 12:52,N,4,12,60:A4:23:C9:A0:4D,3,26.5,1022,44,66,49,107,74,2022-08-01 12:52,157,2022-08-01 21:52
976,2022-08-01 12:52,N,4,16,60:A4:23:D4:5D:A3,3.1,29.8,1006,51,65,54,113,74,2022-08-01 12:52,156,2022-08-01 21:52
977,2022-08-01 12:54,V,3,001E,60:A4:23:7F:3D:60,1.3,28.3,1014,4,4,5,9,96,2022-08-01 12:54,151,2022-08-01 21:54
978,2022-08-01 12:54,N,4,17,60:A4:23:D4:5D:C7,3.1,28.9,1009,50,66,53,114,70,2022-08-01 12:54,156,2022-08-01 21:54
979,2022-08-01 12:55,V,3,001C,60:A4:23:7F:49:30,1.3,28.9,1014,4,5,5,10,92,2022-08-01 12:55,121,2022-08-01 21:55
980,2022-08-01 12:55,N,4,18,60:A4:23:C9:A0:E3,3.1,29.5,1006,52,65,68,124,74,2022-08-01 12:55,156,2022-08-01 21:55
981,2022-08-01 12:56,N,4,10,60:A4:23:C9:A0:4C,3,29.8,1006,14,20,13,33,74,2022-08-01 12:56,158,2022-08-01 21:56
982,2022-08-01 12:57,N,4,19,60:A4:23:D4:5D:84,3,31.8,1029,93,128,99,212,78,2022-08-01 12:57,156,2022-08-01 21:57
983,2022-08-01 12:58,N,4,13,60:A4:23:C9:A0:3E,3,31.1,1023,56,66,54,118,74,2022-08-01 12:58,157,2022-08-01 21:58
984,2022-08-01 13:00,N,4,14,60:A4:23:C9:A0:2F,3.1,31.9,1016,71,80,66,145,76,2022-08-01 13:00,157,2022-08-01 22:00
985,2022-08-01 13:00,N,4,11,60:A4:23:C9:A0:9B,3,32.3,1011,44,49,37,88,73,2022-08-01 13:00,158,2022-08-01 22:00
986,2022-08-01 13:01,N,4,15,60:A4:23:C9:A0:3B,3,30.4,1026,25,30,20,51,73,2022-08-01 13:01,157,2022-08-01 22:02
987,2022-08-01 13:02,V,3,001A,60:A4:23:7C:A5:F3,1.1,27,1014,4,4,6,10,89,2022-08-01 13:02,151,2022-08-01 22:02
988,2022-08-01 13:02,N,4,12,60:A4:23:C9:A0:4D,3,26.5,1022,24,37,22,57,71,2022-08-01 13:02,158,2022-08-01 22:02
989,2022-08-01 13:02,N,4,16,60:A4:23:D4:5D:A3,3.1,30.2,1006,11,16,14,28,83,2022-08-01 13:02,157,2022-08-01 22:02
990,2022-08-01 13:04,V,3,001E,60:A4:23:7F:3D:60,1.3,28.2,1014,4,4,5,9,94,2022-08-01 13:04,152,2022-08-01 22:04
991,2022-08-01 13:04,N,4,17,60:A4:23:D4:5D:C7,3.1,28.3,1009,59,69,62,128,79,2022-08-01 13:04,157,2022-08-01 22:04
992,2022-08-01 13:05,V,3,001C,60:A4:23:7F:49:30,1.3,28.9,1014,4,5,5,10,95,2022-08-01 13:05,122,2022-08-01 22:05
993,2022-08-01 13:05,N,4,18,60:A4:23:C9:A0:E3,3.1,31.1,1006,69,86,68,151,66,2022-08-01 13:05,157,2022-08-01 22:05
994,2022-08-01 13:05,V,3,001D,60:A4:23:7F:3D:52,1.3,24.4,1014,4,4,5,10,92,2022-08-01 13:05,152,2022-08-01 22:05
995,2022-08-01 13:06,N,4,10,60:A4:23:C9:A0:4C,3,29.3,1006,33,32,17,56,77,2022-08-01 13:06,159,2022-08-01 22:06
996,2022-08-01 13:07,N,4,19,60:A4:23:D4:5D:84,3,31.7,1029,95,128,92,211,66,2022-08-01 13:07,157,2022-08-01 22:07
997,2022-08-01 13:08,N,4,13,60:A4:23:C9:A0:3E,3,31.9,1023,17,19,15,35,79,2022-08-01 13:08,158,2022-08-01 22:08
998,2022-08-01 13:10,N,4,14,60:A4:23:C9:A0:2F,3.1,31.8,1016,17,25,20,41,76,2022-08-01 13:10,158,2022-08-01 22:10
999,2022-08-01 13:10,N,4,11,60:A4:23:C9:A0:9B,3,32.2,1011,28,35,25,60,77,2022-08-01 13:10,159,2022-08-01 22:11
1000,2022-08-01 13:11,N,4,15,60:A4:23:C9:A0:3B,3,29.3,1026,26,32,24,56,66,2022-08-01 13:11,158,2022-08-01 22:12
1001,2022-08-01 13:12,V,3,001A,60:A4:23:7C:A5:F3,1.1,27,1014,5,4,6,10,88,2022-08-01 13:12,152,2022-08-01 22:12
1002,2022-08-01 13:12,N,4,12,60:A4:23:C9:A0:4D,3,26.6,1022,26,38,28,64,69,2022-08-01 13:12,159,2022-08-01 22:12
1003,2022-08-01 13:12,N,4,16,60:A4:23:D4:5D:A3,3.1,30.4,1006,12,15,14,28,70,2022-08-01 13:12,158,2022-08-01 22:12
1004,2022-08-01 13:14,N,4,17,60:A4:23:D4:5D:C7,3.1,28.4,1009,62,76,62,136,89,2022-08-01 13:14,158,2022-08-01 22:14
1005,2022-08-01 13:15,V,3,001C,60:A4:23:7F:49:30,1.3,28.9,1014,4,5,5,10,92,2022-08-01 13:15,123,2022-08-01 22:15
1006,2022-08-01 13:15,N,4,18,60:A4:23:C9:A0:E3,3.1,30.5,1006,12,26,14,35,74,2022-08-01 13:15,158,2022-08-01 22:15
1007,2022-08-01 13:15,V,3,001D,60:A4:23:7F:3D:52,1.3,24.4,1014,5,4,5,10,93,2022-08-01 13:15,153,2022-08-01 22:15
1008,2022-08-01 13:16,N,4,10,60:A4:23:C9:A0:4C,3,28.9,1006,37,37,22,65,89,2022-08-01 13:16,160,2022-08-01 22:16
1009,2022-08-01 13:17,N,4,19,60:A4:23:D4:5D:84,3,31.3,1029,60,66,68,130,68,2022-08-01 13:17,158,2022-08-01 22:17
1010,2022-08-01 13:18,N,4,13,60:A4:23:C9:A0:3E,3,31.4,1023,20,22,17,40,77,2022-08-01 13:18,159,2022-08-01 22:18
1011,2022-08-01 13:20,N,4,14,60:A4:23:C9:A0:2F,3.1,32.2,1016,19,19,15,36,63,2022-08-01 13:20,159,2022-08-01 22:20
1012,2022-08-01 13:20,N,4,11,60:A4:23:C9:A0:9B,3,33.2,1011,17,17,14,33,78,2022-08-01 13:20,160,2022-08-01 22:21
1013,2022-08-01 13:21,N,4,15,60:A4:23:C9:A0:3B,3,29.6,1026,20,26,22,46,64,2022-08-01 13:21,159,2022-08-01 22:22
1014,2022-08-01 13:22,V,3,001A,60:A4:23:7C:A5:F3,1.1,27,1014,4,4,6,10,90,2022-08-01 13:22,153,2022-08-01 22:22
1015,2022-08-01 13:22,N,4,12,60:A4:23:C9:A0:4D,3,27,1022,6,7,7,14,80,2022-08-01 13:22,160,2022-08-01 22:22
1016,2022-08-01 13:22,N,4,16,60:A4:23:D4:5D:A3,3.1,27.6,1006,21,19,20,41,72,2022-08-01 13:22,159,2022-08-01 22:22
1017,2022-08-01 13:24,N,4,17,60:A4:23:D4:5D:C7,3.1,28.7,1009,28,30,26,57,75,2022-08-01 13:24,159,2022-08-01 22:24
1018,2022-08-01 13:25,V,3,001C,60:A4:23:7F:49:30,1.3,28.8,1014,4,5,5,10,95,2022-08-01 13:25,124,2022-08-01 22:25
1019,2022-08-01 13:25,N,4,18,60:A4:23:C9:A0:E3,3.1,28.8,1006,15,30,17,43,73,2022-08-01 13:25,159,2022-08-01 22:25
1020,2022-08-01 13:25,V,3,001D,60:A4:23:7F:3D:52,1.3,24.4,1014,5,5,6,11,94,2022-08-01 13:25,154,2022-08-01 22:25
1021,2022-08-01 13:26,N,4,10,60:A4:23:C9:A0:4C,3,31.1,1006,15,20,14,34,86,2022-08-01 13:26,161,2022-08-01 22:26
1022,2022-08-01 13:27,N,4,19,60:A4:23:D4:5D:84,3,32,1029,21,24,20,43,73,2022-08-01 13:27,159,2022-08-01 22:27
1023,2022-08-01 13:28,N,4,13,60:A4:23:C9:A0:3E,3,31.3,1023,21,22,17,40,72,2022-08-01 13:28,160,2022-08-01 22:28
1024,2022-08-01 13:30,N,4,14,60:A4:23:C9:A0:2F,3.1,31.3,1016,19,20,16,36,68,2022-08-01 13:30,160,2022-08-01 22:30
1025,2022-08-01 13:30,N,4,11,60:A4:23:C9:A0:9B,3,33.3,1011,9,9,9,19,73,2022-08-01 13:30,161,2022-08-01 22:30
1026,2022-08-01 13:31,N,4,15,60:A4:23:C9:A0:3B,3,29.1,1026,6,7,9,15,62,2022-08-01 13:31,160,2022-08-01 22:32
1027,2022-08-01 13:32,V,3,001A,60:A4:23:7C:A5:F3,1.1,26.9,1014,4,4,6,10,89,2022-08-01 13:32,154,2022-08-01 22:32
1028,2022-08-01 13:32,N,4,12,60:A4:23:C9:A0:4D,3,27,1022,16,20,18,36,68,2022-08-01 13:32,161,2022-08-01 22:32
1029,2022-08-01 13:32,N,4,16,60:A4:23:D4:5D:A3,3.1,26.9,1006,21,20,20,41,79,2022-08-01 13:32,160,2022-08-01 22:32
1030,2022-08-01 13:34,N,4,17,60:A4:23:D4:5D:C7,3.1,30.1,1009,14,17,14,31,79,2022-08-01 13:34,160,2022-08-01 22:34
1031,2022-08-01 13:35,V,3,001C,60:A4:23:7F:49:30,1.3,28.8,1014,4,5,5,10,94,2022-08-01 13:35,125,2022-08-01 22:35
1032,2022-08-01 13:35,N,4,18,60:A4:23:C9:A0:E3,3.1,29,1006,36,49,40,83,67,2022-08-01 13:35,160,2022-08-01 22:35
1033,2022-08-01 13:36,N,4,10,60:A4:23:C9:A0:4C,3,32,1006,9,13,12,23,86,2022-08-01 13:36,162,2022-08-01 22:36
1034,2022-08-01 13:37,N,4,19,60:A4:23:D4:5D:84,3,31.9,1029,12,17,15,30,71,2022-08-01 13:37,160,2022-08-01 22:37
1035,2022-08-01 13:38,N,4,13,60:A4:23:C9:A0:3E,3,31.4,1023,27,29,23,54,75,2022-08-01 13:38,161,2022-08-01 22:38
1036,2022-08-01 13:40,N,4,14,60:A4:23:C9:A0:2F,3.1,29.9,1016,8,9,10,19,70,2022-08-01 13:40,161,2022-08-01 22:40
1037,2022-08-01 13:40,N,4,11,60:A4:23:C9:A0:9B,3,33.7,1011,11,13,12,24,92,2022-08-01 13:40,162,2022-08-01 22:40
1038,2022-08-01 13:41,N,4,15,60:A4:23:C9:A0:3B,3,27.6,1026,49,53,52,104,80,2022-08-01 13:41,161,2022-08-01 22:42
1039,2022-08-01 13:42,V,3,001A,60:A4:23:7C:A5:F3,1.1,26.9,1014,4,4,6,10,88,2022-08-01 13:42,155,2022-08-01 22:42
1040,2022-08-01 13:42,N,4,12,60:A4:23:C9:A0:4D,3,26.6,1022,12,13,12,25,72,2022-08-01 13:42,162,2022-08-01 22:42
1041,2022-08-01 13:42,N,4,16,60:A4:23:D4:5D:A3,3.1,27.1,1006,11,12,13,24,79,2022-08-01 13:42,161,2022-08-01 22:42
1042,2022-08-01 13:44,V,3,001E,60:A4:23:7F:3D:60,1.3,28.1,1014,4,4,5,10,93,2022-08-01 13:44,156,2022-08-01 22:44
1043,2022-08-01 13:44,N,4,17,60:A4:23:D4:5D:C7,3.1,30.1,1009,31,40,27,66,87,2022-08-01 13:44,161,2022-08-01 22:44
1044,2022-08-01 13:45,V,3,001C,60:A4:23:7F:49:30,1.3,28.8,1014,4,5,5,10,91,2022-08-01 13:45,126,2022-08-01 22:45
1045,2022-08-01 13:45,N,4,18,60:A4:23:C9:A0:E3,3.1,31.4,1006,14,20,16,34,69,2022-08-01 13:45,161,2022-08-01 22:45
1046,2022-08-01 13:45,V,3,001D,60:A4:23:7F:3D:52,1.3,24.3,1014,4,4,6,10,93,2022-08-01 13:45,156,2022-08-01 22:45
1047,2022-08-01 13:46,N,4,10,60:A4:23:C9:A0:4C,3,32.4,1006,6,6,6,13,75,2022-08-01 13:46,163,2022-08-01 22:46
1048,2022-08-01 13:47,N,4,19,60:A4:23:D4:5D:84,3,31.3,1029,28,23,16,46,68,2022-08-01 13:47,161,2022-08-01 22:47
1049,2022-08-01 13:48,N,4,13,60:A4:23:C9:A0:3E,3,32.9,1023,12,15,14,28,81,2022-08-01 13:48,162,2022-08-01 22:48
1050,2022-08-01 13:50,N,4,14,60:A4:23:C9:A0:2F,3.1,31.3,1016,6,6,8,14,69,2022-08-01 13:50,162,2022-08-01 22:50
1051,2022-08-01 13:50,N,4,11,60:A4:23:C9:A0:9B,3,34.3,1011,11,12,11,23,78,2022-08-01 13:50,163,2022-08-01 22:50
1052,2022-08-01 13:51,N,4,15,60:A4:23:C9:A0:3B,3,26.6,1026,44,43,46,90,63,2022-08-01 13:51,162,2022-08-01 22:52
1053,2022-08-01 13:52,V,3,001A,60:A4:23:7C:A5:F3,1.1,26.9,1014,4,4,6,10,89,2022-08-01 13:52,156,2022-08-01 22:52
1054,2022-08-01 13:52,N,4,12,60:A4:23:C9:A0:4D,3,27.2,1022,6,8,8,15,72,2022-08-01 13:52,163,2022-08-01 22:52
1055,2022-08-01 13:52,N,4,16,60:A4:23:D4:5D:A3,3.1,27.5,1006,17,22,20,40,80,2022-08-01 13:52,162,2022-08-01 22:52
1056,2022-08-01 13:54,V,3,001E,60:A4:23:7F:3D:60,1.3,28.1,1014,5,4,5,9,93,2022-08-01 13:54,157,2022-08-01 22:54
1057,2022-08-01 13:54,N,4,17,60:A4:23:D4:5D:C7,3.1,30.3,1009,10,10,9,19,80,2022-08-01 13:54,162,2022-08-01 22:54
1058,2022-08-01 13:55,N,4,18,60:A4:23:C9:A0:E3,3.1,32.1,1006,9,16,11,25,87,2022-08-01 13:55,162,2022-08-01 22:55
1059,2022-08-01 13:55,V,3,001D,60:A4:23:7F:3D:52,1.3,24.3,1014,5,4,5,10,94,2022-08-01 13:55,157,2022-08-01 22:55
1060,2022-08-01 13:56,N,4,10,60:A4:23:C9:A0:4C,3,31.9,1006,25,29,20,49,76,2022-08-01 13:56,164,2022-08-01 22:56
1061,2022-08-01 13:57,N,4,19,60:A4:23:D4:5D:84,3,30,1029,27,22,16,43,84,2022-08-01 13:57,162,2022-08-01 22:57
1062,2022-08-01 13:58,N,4,13,60:A4:23:C9:A0:3E,3,32.6,1023,52,69,51,116,72,2022-08-01 13:58,163,2022-08-01 22:58
1063,2022-08-01 14:00,N,4,14,60:A4:23:C9:A0:2F,3.1,32.1,1016,6,6,7,14,73,2022-08-01 14:00,163,2022-08-01 23:00
1064,2022-08-01 14:00,N,4,11,60:A4:23:C9:A0:9B,3,33.6,1011,29,24,18,48,72,2022-08-01 14:00,164,2022-08-01 23:00
1065,2022-08-01 14:01,N,4,15,60:A4:23:C9:A0:3B,3,26.6,1026,13,15,13,27,62,2022-08-01 14:01,163,2022-08-01 23:02
1066,2022-08-01 14:02,V,3,001A,60:A4:23:7C:A5:F3,1.1,26.8,1014,4,4,6,11,89,2022-08-01 14:02,157,2022-08-01 23:02
1067,2022-08-01 14:02,N,4,12,60:A4:23:C9:A0:4D,3,27.2,1022,12,16,13,28,72,2022-08-01 14:02,164,2022-08-01 23:02
1068,2022-08-01 14:02,N,4,16,60:A4:23:D4:5D:A3,3.1,29.7,1006,18,16,21,37,69,2022-08-01 14:02,163,2022-08-01 23:02
1069,2022-08-01 14:05,V,3,001C,60:A4:23:7F:49:30,1.3,28.7,1014,4,4,6,10,93,2022-08-01 14:05,128,2022-08-01 23:05
1070,2022-08-01 14:05,N,4,18,60:A4:23:C9:A0:E3,3.1,31.7,1006,22,30,21,49,81,2022-08-01 14:05,163,2022-08-01 23:05
1071,2022-08-01 14:05,V,3,001D,60:A4:23:7F:3D:52,1.3,24.2,1014,5,4,5,10,94,2022-08-01 14:05,158,2022-08-01 23:05
1072,2022-08-01 14:06,N,4,10,60:A4:23:C9:A0:4C,3,30.1,1006,22,27,18,45,73,2022-08-01 14:06,165,2022-08-01 23:06
1073,2022-08-01 14:07,N,4,19,60:A4:23:D4:5D:84,3,29.6,1029,25,19,16,40,72,2022-08-01 14:07,163,2022-08-01 23:07
1074,2022-08-01 14:08,N,4,13,60:A4:23:C9:A0:3E,3,32.1,1023,35,38,31,69,94,2022-08-01 14:08,164,2022-08-01 23:08
1075,2022-08-01 14:10,N,4,14,60:A4:23:C9:A0:2F,3.1,32.2,1016,7,9,9,17,67,2022-08-01 14:10,164,2022-08-01 23:10
1076,2022-08-01 14:10,N,4,11,60:A4:23:C9:A0:9B,3,33.4,1011,25,22,16,44,78,2022-08-01 14:10,165,2022-08-01 23:10
1077,2022-08-01 14:11,N,4,15,60:A4:23:C9:A0:3B,3,26.5,1026,23,22,18,43,66,2022-08-01 14:11,164,2022-08-01 23:12
1078,2022-08-01 14:12,V,3,001A,60:A4:23:7C:A5:F3,1.1,26.8,1014,4,4,6,10,89,2022-08-01 14:12,158,2022-08-01 23:12
1079,2022-08-01 14:12,N,4,12,60:A4:23:C9:A0:4D,3,25,1022,14,19,15,32,72,2022-08-01 14:12,165,2022-08-01 23:12
1080,2022-08-01 14:12,N,4,16,60:A4:23:D4:5D:A3,3.1,29.3,1006,20,28,27,51,76,2022-08-01 14:12,164,2022-08-01 23:12
1081,2022-08-01 14:15,V,3,001C,60:A4:23:7F:49:30,1.3,28.6,1014,5,4,5,10,93,2022-08-01 14:15,129,2022-08-01 23:15
1082,2022-08-01 14:15,N,4,18,60:A4:23:C9:A0:E3,3.1,30.3,1006,25,30,26,55,72,2022-08-01 14:15,164,2022-08-01 23:15
1083,2022-08-01 14:15,V,3,001D,60:A4:23:7F:3D:52,1.3,24.1,1014,5,4,6,10,92,2022-08-01 14:15,159,2022-08-01 23:15
1084,2022-08-01 14:16,N,4,10,60:A4:23:C9:A0:4C,3,30.4,1006,19,24,18,41,73,2022-08-01 14:16,166,2022-08-01 23:16
1085,2022-08-01 14:17,N,4,19,60:A4:23:D4:5D:84,3,28.3,1029,7,9,11,19,70,2022-08-01 14:17,164,2022-08-01 23:17
1086,2022-08-01 14:18,N,4,13,60:A4:23:C9:A0:3E,3,33.5,1023,15,18,15,33,74,2022-08-01 14:18,165,2022-08-01 23:18
